Folder: PeaksSeparation.jl/src/data/kinetics/multipeaks

Note: README.md
# PeaksSeparation

[![Build Status](https://github.com/Manarom/PeaksSeparation.jl/actions/workflows/CI.yml/badge.svg?branch=main)](https://github.com/Manarom/PeaksSeparation.jl/actions/workflows/CI.yml?query=branch%3Amain)

Small package for peaks separation

<p float="left">
  <img src="./src/data/kinetics/peaks.png" width="320"/>
</p>

# Quick start:
Clone this repository to your local machine in `project_folder` (any name)

In julia REPL run:
```julia
  import Pkg
  cd(project_folder) # sets working folder to project_folder
  Pkg.activate(".")
  Pkg.instantiate() # to install all necessary dependencies
  include(".\\src\\PeaksSeparation.jl")
  using .PeaksSeparation
  (sol,p) = PeaksSeparation.fit_peaks(x,y,N=5) # fits five peaks to y(x) curve
  p[0] # gives baseline object
  p[1] # first peak etc
  using Plots
  plot(p)  # plots peaks
  PeaksSeparation.fit_peaks!(p) # to perform additional fitting
```
Pluto [notebook](https://github.com/Manarom/PeaksSeparation.jl/blob/main/src/dsc_peaks.jl) is also available

File: q5.txt
#EXPORTTYPE:DATA SINGLE
#FTYPE:ANSI
#IDENTITY:005920
#DECIMAL:POINT
#SEPARATOR:SEMICOLON
#MTYPE:DSC
#SENSITIVITY:SENSZERO.EXX
#SAMPLE:1
#SAMPLE MASS /mg:9.99
#MATERIAL:
#REFERENCE:
#REFERENCE MASS /mg:0
#TYPE OF CRUCIBLE:DSC/TG pan Al2O3
#SAMPLE CRUCIBLE MASS /mg:0
#REFERENCE CRUCIBLE MASS /mg:0
#DSC RANGE /V:5000
#TG RANGE /mg:5000
#TAU-R:---
#CORR. CODE:020
#EXO:+1
#RANGE:35C/00:00/35C/5,0(K/min)/920C/
#SEGMENT:S1-2/2
#SEG. 1:35C/00:15/35C
#SEG. 2:35C/5,0(K/min)/920C

##Temp./C;Time/min;DSC/(uV/mg);Sensit./(uV/mW);Segment
 34.17900;  0.00000;-1.4510e-003;1.00000;1
 34.17688;  1.00000;-1.3747e-003;1.00000;1
 34.16682;  2.00000;-6.8733e-004;1.00000;1
 34.16623;  3.00000;-1.4510e-003;1.00000;1
 34.16165;  4.00000;-1.6038e-003;1.00000;1
 34.16271;  5.00000;-2.0620e-003;1.00000;1
 34.15588;  6.00000;-6.1096e-004;1.00000;1
 34.15471;  7.00000;-2.1384e-003;1.00000;1
 34.15700;  8.00000;-1.6801e-003;1.00000;1
 34.15406;  9.00000;-1.6038e-003;1.00000;1
 34.15165; 10.00000;-1.4510e-003;1.00000;1
 34.14235; 11.00000;-1.6801e-003;1.00000;1
 34.12859; 12.00000;-1.2983e-003;1.00000;1
 34.12447; 13.00000;-2.1384e-003;1.00000;1
 34.11500; 14.00000;-1.5274e-003;1.00000;1
 34.11549; 15.00000;-1.8819e-003;1.00000;2
 34.42622; 16.00000;-4.6939e-003;1.00000;2
 36.19250; 17.00000;-1.4563e-002;1.00000;2
 39.09878; 18.00000;-2.2553e-002;1.00000;2
 42.69183; 19.00000;-2.8700e-002;1.00000;2
 46.74168; 20.00000;-3.3235e-002;1.00000;2
 51.10446; 21.00000;-3.9461e-002;1.00000;2
 55.68474; 22.00000;-4.2180e-002;1.00000;2
 60.43665; 23.00000;-4.8979e-002;1.00000;2
 65.30787; 24.00000;-3.9380e-002;1.00000;2
 70.24448; 25.00000;-3.9173e-002;1.00000;2
 75.22398; 26.00000;-4.1701e-002;1.00000;2
 80.21691; 27.00000;-4.3098e-002;1.00000;2
 85.24469; 28.00000;-4.1489e-002;1.00000;2
 90.30329; 29.00000;-3.4878e-002;1.00000;2
 95.38379; 30.00000;-3.7171e-002;1.00000;2
100.482; 31.00000;-4.0039e-002;1.00000;2
105.595; 32.00000;-3.7457e-002;1.00000;2
110.698; 33.00000;-3.4143e-002;1.00000;2
115.8; 34.00000;-3.7691e-002;1.00000;2
120.886; 35.00000;-3.6809e-002;1.00000;2
125.984; 36.00000;-3.6516e-002;1.00000;2
131.096; 37.00000;-3.6576e-002;1.00000;2
136.213; 38.00000;-3.5805e-002;1.00000;2
141.336; 39.00000;-3.2652e-002;1.00000;2
146.477; 40.00000;-3.6885e-002;1.00000;2
151.63; 41.00000;-3.6631e-002;1.00000;2
156.779; 42.00000;-3.6746e-002;1.00000;2
161.923; 43.00000;-3.5427e-002;1.00000;2
167.069; 44.00000;-3.5359e-002;1.00000;2
172.2; 45.00000;-2.9214e-002;1.00000;2
177.339; 46.00000;-2.6277e-002;1.00000;2
182.47; 47.00000;-3.6901e-002;1.00000;2
187.6; 48.00000;-2.5448e-002;1.00000;2
192.741; 49.00000;-2.6282e-002;1.00000;2
197.878; 50.00000;-2.9004e-002;1.00000;2
203.018; 51.00000;-3.0022e-002;1.00000;2
208.16; 52.00000;-2.6369e-002;1.00000;2
213.294; 53.00000;-2.6312e-002;1.00000;2
218.417; 54.00000;-2.3800e-002;1.00000;2
223.532; 55.00000;-2.3208e-002;1.00000;2
228.648; 56.00000;-2.1974e-002;1.00000;2
233.765; 57.00000;-2.0759e-002;1.00000;2
238.878; 58.00000;-1.9527e-002;1.00000;2
243.985; 59.00000;-1.7378e-002;1.00000;2
249.096; 60.00000;-1.5824e-002;1.00000;2
254.205; 61.00000;-1.3357e-002;1.00000;2
259.311; 62.00000;-1.2128e-002;1.00000;2
264.42; 63.00000;-1.0403e-002;1.00000;2
269.535; 64.00000;-8.1255e-003;1.00000;2
274.632; 65.00000;-7.1381e-003;1.00000;2
279.729; 66.00000;-5.1825e-003;1.00000;2
284.836; 67.00000;-2.2279e-003;1.00000;2
289.94; 68.00000;-1.2224e-003;1.00000;2
295.031; 69.00000;-4.1845e-004;1.00000;2
300.129; 70.00000; 1.8941e-003;1.00000;2
305.218; 71.00000; 3.9979e-003;1.00000;2
310.299; 72.00000; 4.1490e-003;1.00000;2
315.373; 73.00000; 6.7889e-003;1.00000;2
320.449; 74.00000; 8.4435e-003;1.00000;2
325.526; 75.00000; 1.0854e-002;1.00000;2
330.599; 76.00000; 1.3596e-002;1.00000;2
335.672; 77.00000; 1.5225e-002;1.00000;2
340.734; 78.00000; 1.7366e-002;1.00000;2
345.801; 79.00000; 1.9706e-002;1.00000;2
350.862; 80.00000; 2.3072e-002;1.00000;2
355.923; 81.00000; 2.6209e-002;1.00000;2
360.985; 82.00000; 2.9429e-002;1.00000;2
366.039; 83.00000; 3.2743e-002;1.00000;2
371.086; 84.00000; 3.6114e-002;1.00000;2
376.134; 85.00000; 3.8910e-002;1.00000;2
381.179; 86.00000; 4.2748e-002;1.00000;2
386.218; 87.00000; 4.7498e-002;1.00000;2
391.254; 88.00000; 5.1616e-002;1.00000;2
396.297; 89.00000; 5.5629e-002;1.00000;2
401.34; 90.00000; 6.0287e-002;1.00000;2
406.379; 91.00000; 6.3942e-002;1.00000;2
411.418; 92.00000; 6.9161e-002;1.00000;2
416.45; 93.00000; 7.3042e-002;1.00000;2
421.478; 94.00000; 7.7454e-002;1.00000;2
426.506; 95.00000; 8.1513e-002;1.00000;2
431.534; 96.00000; 8.7233e-002;1.00000;2
436.573; 97.00000; 9.3413e-002;1.00000;2
441.604; 98.00000; 9.7099e-002;1.00000;2
446.638; 99.00000;     0.10287;1.00000;2
451.676;100;     0.10776;1.00000;2
456.696;101;     0.11286;1.00000;2
461.713;102;     0.11903;1.00000;2
466.727;103;     0.12418;1.00000;2
471.739;104;     0.12903;1.00000;2
476.747;105;     0.13310;1.00000;2
481.753;106;     0.13832;1.00000;2
486.76;107;     0.14303;1.00000;2
491.772;108;     0.14745;1.00000;2
496.782;109;     0.15178;1.00000;2
501.796;110;     0.15741;1.00000;2
506.804;111;     0.16361;1.00000;2
511.798;112;     0.17396;1.00000;2
516.891;113;     0.63386;1.00000;2
522.021;114;     0.80831;1.00000;2
527.437;115;     0.73988;1.00000;2
533;116;     1.06824;1.00000;2
537.996;117;     1.18442;1.00000;2
542.871;118;     1.24167;1.00000;2
547.731;119;     1.27011;1.00000;2
552.601;120;     1.27566;1.00000;2
557.497;121;     1.27322;1.00000;2
562.398;122;     1.26847;1.00000;2
567.305;123;     1.26035;1.00000;2
572.223;124;     1.25332;1.00000;2
577.149;125;     1.25341;1.00000;2
582.107;126;     1.26017;1.00000;2
587.052;127;     1.29128;1.00000;2
591.998;128;     1.29643;1.00000;2
596.964;129;     1.31019;1.00000;2
601.936;130;     1.32937;1.00000;2
606.909;131;     1.34761;1.00000;2
611.878;132;     1.36310;1.00000;2
616.848;133;     1.37589;1.00000;2
621.815;134;     1.38668;1.00000;2
626.776;135;     1.38872;1.00000;2
631.726;136;     1.38494;1.00000;2
636.667;137;     1.37900;1.00000;2
641.611;138;     1.36339;1.00000;2
646.558;139;     1.33775;1.00000;2
651.493;140;     1.30678;1.00000;2
656.417;141;     1.26260;1.00000;2
661.33;142;     1.20982;1.00000;2
666.247;143;     1.14492;1.00000;2
671.154;144;     1.05493;1.00000;2
676.039;145;     0.93029;1.00000;2
680.915;146;     0.76412;1.00000;2
685.775;147;     0.53755;1.00000;2
690.618;148;     0.28546;1.00000;2
695.473;149;     0.10143;1.00000;2
700.371;150; 3.0215e-002;1.00000;2
705.291;151; 1.3505e-002;1.00000;2
710.236;152; 1.0056e-002;1.00000;2
715.181;153; 8.5182e-003;1.00000;2
720.121;154; 8.2383e-003;1.00000;2
725.061;155; 6.5420e-003;1.00000;2
730.006;156; 7.4833e-003;1.00000;2
734.95;157; 7.5469e-003;1.00000;2
739.898;158; 4.9858e-003;1.00000;2
744.842;159; 6.4813e-003;1.00000;2
749.774;160; 5.1909e-003;1.00000;2
754.709;161; 1.1120e-003;1.00000;2
759.647;162; 2.6988e-003;1.00000;2
764.587;163; 2.1621e-003;1.00000;2
769.532;164; 1.0848e-003;1.00000;2
774.484;165;-1.6543e-003;1.00000;2
779.436;166;-2.3571e-003;1.00000;2
784.375;167;-3.3344e-003;1.00000;2
789.312;168;-4.9795e-003;1.00000;2
794.255;169;-4.8088e-003;1.00000;2
799.2;170;-6.4735e-003;1.00000;2
804.141;171;-7.5035e-003;1.00000;2
809.08;172;-1.2124e-002;1.00000;2
814.012;173;-1.6873e-002;1.00000;2
818.944;174;-1.8621e-002;1.00000;2
823.877;175;-2.0324e-002;1.00000;2
828.815;176;-1.8723e-002;1.00000;2
833.752;177;-1.7461e-002;1.00000;2
838.691;178;-1.9479e-002;1.00000;2
843.63;179;-2.1952e-002;1.00000;2
848.569;180;-2.3428e-002;1.00000;2
853.5;181;-2.7284e-002;1.00000;2
858.438;182;-3.1619e-002;1.00000;2
863.372;183;-3.2291e-002;1.00000;2
868.312;184;-3.2689e-002;1.00000;2
873.252;185;-3.4691e-002;1.00000;2
878.188;186;-3.5875e-002;1.00000;2
883.121;187;-3.7657e-002;1.00000;2
888.055;188;-3.7454e-002;1.00000;2
892.986;189;-3.7561e-002;1.00000;2
897.912;190;-3.7845e-002;1.00000;2
902.845;191;-3.7481e-002;1.00000;2
906.55;191.75;-3.9743e-002;1.00000;2

File: q10.txt
#EXPORTTYPE:DATA SINGLE
#FTYPE:ANSI
#IDENTITY:005922
#DECIMAL:POINT
#SEPARATOR:SEMICOLON
#MTYPE:DSC
#SAMPLE:2
#SAMPLE MASS /mg:7.28
#REFERENCE MASS /mg:0
#TYPE OF CRUCIBLE:DSC/TG pan Al2O3
#SAMPLE CRUCIBLE MASS /mg:0
#REFERENCE CRUCIBLE MASS /mg:0
#DSC RANGE /�V:5000
#TG RANGE /mg:5000
#TAU-R:---
#CORR. CODE:020
#EXO:+1
#RANGE:35�C/00:00/35�C/10,0(K/min)/920�C/
#SEGMENT:S1-2/2
#SEG. 1:35�C/00:15/35�C
#SEG. 2:35�C/10,0(K/min)/920�C

##Temp./�C;Time/min;DSC/(uV/mg);Sensit./(uV/mW);Segment
 33.97600;  0.00000; 3.9824e-003;1.00000;1
 34.00776;  0.50000; 3.2488e-003;1.00000;1
 34.05276;  1.00000; 3.3536e-003;1.00000;1
 34.08182;  1.50000; 2.7248e-003;1.00000;1
 34.10847;  2.00000; 2.9344e-003;1.00000;1
 34.13618;  2.50000; 3.1440e-003;1.00000;1
 34.15324;  3.00000; 2.9344e-003;1.00000;1
 34.16100;  3.50000; 1.3624e-003;1.00000;1
 34.16953;  4.00000; 2.4104e-003;1.00000;1
 34.18312;  4.50000; 2.2008e-003;1.00000;1
 34.18865;  5.00000; 1.5720e-003;1.00000;1
 34.19294;  5.50000; 2.7248e-003;1.00000;1
 34.19524;  6.00000; 2.3056e-003;1.00000;1
 34.20065;  6.50000; 2.3056e-003;1.00000;1
 34.20253;  7.00000; 1.8864e-003;1.00000;1
 34.20600;  7.50000; 1.6768e-003;1.00000;1
 34.20118;  8.00000; 1.8864e-003;1.00000;1
 34.20176;  8.50000; 2.7248e-003;1.00000;1
 34.20347;  9.00000; 2.4104e-003;1.00000;1
 34.20318;  9.50000; 2.2008e-003;1.00000;1
 34.20500; 10.00000; 1.0480e-003;1.00000;1
 34.20871; 10.50000; 1.6768e-003;1.00000;1
 34.20712; 11.00000; 1.6768e-003;1.00000;1
 34.20771; 11.50000; 1.2576e-003;1.00000;1
 34.20588; 12.00000; 6.2880e-004;1.00000;1
 34.20829; 12.50000; 5.2400e-004;1.00000;1
 34.20776; 13.00000; 6.2880e-004;1.00000;1
 34.21177; 13.50000; 1.0480e-004;1.00000;1
 34.21224; 14.00000; 1.7816e-003;1.00000;1
 34.20835; 14.50000; 1.1528e-003;1.00000;1
 34.22108; 15.00000; 9.0777e-004;1.00000;2
 34.25831; 15.50000; 1.7510e-003;1.00000;2
 34.84544; 16.00000;-1.9157e-003;1.00000;2
 36.30742; 16.50000;-1.0309e-002;1.00000;2
 38.55148; 17.00000;-1.9099e-002;1.00000;2
 41.38813; 17.50000;-2.6860e-002;1.00000;2
 44.65488; 18.00000;-3.3768e-002;1.00000;2
 48.26587; 18.50000;-3.9822e-002;1.00000;2
 52.17875; 19.00000;-4.4350e-002;1.00000;2
 56.32557; 19.50000;-5.3274e-002;1.00000;2
 60.66140; 20.00000;-5.3299e-002;1.00000;2
 65.16764; 20.50000;-5.4207e-002;1.00000;2
 69.79150; 21.00000;-5.9284e-002;1.00000;2
 74.51336; 21.50000;-5.9477e-002;1.00000;2
 79.31675; 22.00000;-5.6649e-002;1.00000;2
 84.20921; 22.50000;-4.9302e-002;1.00000;2
 89.17272; 23.00000;-5.1370e-002;1.00000;2
 94.20287; 23.50000;-5.3055e-002;1.00000;2
 99.28467; 24.00000;-5.4206e-002;1.00000;2
104.41; 24.50000;-5.1705e-002;1.00000;2
109.553; 25.00000;-5.2811e-002;1.00000;2
114.701; 25.50000;-5.1845e-002;1.00000;2
119.853; 26.00000;-5.1632e-002;1.00000;2
125.02; 26.50000;-6.5079e-002;1.00000;2
130.201; 27.00000;-4.9705e-002;1.00000;2
135.416; 27.50000;-6.3718e-002;1.00000;2
140.645; 28.00000;-6.2142e-002;1.00000;2
145.893; 28.50000;-6.5566e-002;1.00000;2
151.148; 29.00000;-6.1063e-002;1.00000;2
156.42; 29.50000;-5.5139e-002;1.00000;2
161.667; 30.00000;-5.8567e-002;1.00000;2
166.927; 30.50000;-5.6746e-002;1.00000;2
172.176; 31.00000;-5.0015e-002;1.00000;2
177.423; 31.50000;-4.7961e-002;1.00000;2
182.675; 32.00000;-4.4933e-002;1.00000;2
187.928; 32.50000;-5.1711e-002;1.00000;2
193.188; 33.00000;-4.3942e-002;1.00000;2
198.45; 33.50000;-3.2518e-002;1.00000;2
203.7; 34.00000;-2.5994e-002;1.00000;2
208.954; 34.50000;-3.0950e-002;1.00000;2
214.203; 35.00000;-2.3258e-002;1.00000;2
219.45; 35.50000;-1.8628e-002;1.00000;2
224.693; 36.00000;-1.6130e-002;1.00000;2
229.938; 36.50000;-9.8402e-003;1.00000;2
235.177; 37.00000;-9.5459e-003;1.00000;2
240.409; 37.50000;-5.8141e-003;1.00000;2
245.63; 38.00000;-2.5932e-003;1.00000;2
250.851; 38.50000; 1.0651e-003;1.00000;2
256.066; 39.00000; 5.4831e-003;1.00000;2
261.282; 39.50000; 7.1687e-003;1.00000;2
266.493; 40.00000; 1.3226e-002;1.00000;2
271.702; 40.50000; 1.5525e-002;1.00000;2
276.905; 41.00000; 2.0453e-002;1.00000;2
282.104; 41.50000; 2.5876e-002;1.00000;2
287.296; 42.00000; 2.8739e-002;1.00000;2
292.484; 42.50000; 3.2683e-002;1.00000;2
297.662; 43.00000; 3.6585e-002;1.00000;2
302.844; 43.50000; 4.1420e-002;1.00000;2
308.025; 44.00000; 4.4932e-002;1.00000;2
313.198; 44.50000; 4.8864e-002;1.00000;2
318.367; 45.00000; 5.2416e-002;1.00000;2
323.53; 45.50000; 5.6164e-002;1.00000;2
328.684; 46.00000; 6.0785e-002;1.00000;2
333.832; 46.50000; 6.3200e-002;1.00000;2
338.979; 47.00000; 6.8826e-002;1.00000;2
344.124; 47.50000; 7.4351e-002;1.00000;2
349.266; 48.00000; 7.8084e-002;1.00000;2
354.404; 48.50000; 8.2861e-002;1.00000;2
359.53; 49.00000; 8.6250e-002;1.00000;2
364.655; 49.50000; 9.0944e-002;1.00000;2
369.777; 50.00000; 9.6012e-002;1.00000;2
374.894; 50.50000;     0.10229;1.00000;2
380.012; 51.00000;     0.10704;1.00000;2
385.131; 51.50000;     0.11387;1.00000;2
390.241; 52.00000;     0.11884;1.00000;2
395.351; 52.50000;     0.12382;1.00000;2
400.449; 53.00000;     0.12980;1.00000;2
405.55; 53.50000;     0.13592;1.00000;2
410.638; 54.00000;     0.14190;1.00000;2
415.732; 54.50000;     0.14725;1.00000;2
420.819; 55.00000;     0.15442;1.00000;2
425.911; 55.50000;     0.16042;1.00000;2
430.995; 56.00000;     0.16628;1.00000;2
436.074; 56.50000;     0.17462;1.00000;2
441.145; 57.00000;     0.17993;1.00000;2
446.217; 57.50000;     0.18700;1.00000;2
451.286; 58.00000;     0.19344;1.00000;2
456.353; 58.50000;     0.20025;1.00000;2
461.418; 59.00000;     0.20797;1.00000;2
466.477; 59.50000;     0.21565;1.00000;2
471.529; 60.00000;     0.22365;1.00000;2
476.582; 60.50000;     0.23068;1.00000;2
481.636; 61.00000;     0.23706;1.00000;2
486.683; 61.50000;     0.24474;1.00000;2
491.728; 62.00000;     0.25154;1.00000;2
496.768; 62.50000;     0.27908;1.00000;2
501.821; 63.00000;     0.35412;1.00000;2
506.882; 63.50000;     0.44248;1.00000;2
511.946; 64.00000;     0.53362;1.00000;2
517.02; 64.50000;     0.64848;1.00000;2
522.098; 65.00000;     0.76641;1.00000;2
527.178; 65.50000;     0.88420;1.00000;2
532.264; 66.00000;     0.98946;1.00000;2
537.468; 66.50000;     1.01910;1.00000;2
543.182; 67.00000;     0.97763;1.00000;2
548.501; 67.50000;     1.14078;1.00000;2
553.563; 68.00000;     1.30805;1.00000;2
558.516; 68.50000;     1.45408;1.00000;2
563.435; 69.00000;     1.57136;1.00000;2
568.34; 69.50000;     1.63525;1.00000;2
573.249; 70.00000;     1.67431;1.00000;2
578.162; 70.50000;     1.69525;1.00000;2
583.077; 71.00000;     1.71106;1.00000;2
588.002; 71.50000;     1.74614;1.00000;2
592.939; 72.00000;     1.74550;1.00000;2
597.889; 72.50000;     1.75313;1.00000;2
602.842; 73.00000;     1.76506;1.00000;2
607.795; 73.50000;     1.78062;1.00000;2
612.752; 74.00000;     1.79798;1.00000;2
617.716; 74.50000;     1.82266;1.00000;2
622.685; 75.00000;     1.84991;1.00000;2
627.656; 75.50000;     1.87749;1.00000;2
632.631; 76.00000;     1.90221;1.00000;2
637.608; 76.50000;     1.92159;1.00000;2
642.586; 77.00000;     1.93715;1.00000;2
647.562; 77.50000;     1.94708;1.00000;2
652.538; 78.00000;     1.94805;1.00000;2
657.509; 78.50000;     1.94906;1.00000;2
662.477; 79.00000;     1.94917;1.00000;2
667.435; 79.50000;     1.94832;1.00000;2
672.393; 80.00000;     1.94615;1.00000;2
677.351; 80.50000;     1.93828;1.00000;2
682.307; 81.00000;     1.92867;1.00000;2
687.259; 81.50000;     1.91015;1.00000;2
692.207; 82.00000;     1.89138;1.00000;2
697.15; 82.50000;     1.86979;1.00000;2
702.093; 83.00000;     1.84578;1.00000;2
707.031; 83.50000;     1.81473;1.00000;2
711.974; 84.00000;     1.77488;1.00000;2
716.905; 84.50000;     1.71063;1.00000;2
721.823; 85.00000;     1.61335;1.00000;2
726.768; 85.50000;     1.47404;1.00000;2
731.732; 86.00000;     1.27557;1.00000;2
736.677; 86.50000;     1.03756;1.00000;2
741.597; 87.00000;     0.78340;1.00000;2
746.505; 87.50000;     0.53419;1.00000;2
751.4; 88.00000;     0.31744;1.00000;2
756.305; 88.50000;     0.16156;1.00000;2
761.228; 89.00000; 8.1098e-002;1.00000;2
766.169; 89.50000; 4.8147e-002;1.00000;2
771.13; 90.00000; 3.6720e-002;1.00000;2
776.092; 90.50000; 3.2237e-002;1.00000;2
781.059; 91.00000; 2.8201e-002;1.00000;2
786.022; 91.50000; 2.4461e-002;1.00000;2
790.986; 92.00000; 1.9986e-002;1.00000;2
795.94; 92.50000; 1.9127e-002;1.00000;2
800.887; 93.00000; 1.8606e-002;1.00000;2
805.838; 93.50000; 1.4235e-002;1.00000;2
810.787; 94.00000; 1.1496e-002;1.00000;2
815.733; 94.50000; 6.5157e-003;1.00000;2
820.689; 95.00000; 1.7550e-003;1.00000;2
825.643; 95.50000; 3.6615e-004;1.00000;2
830.599; 96.00000;-8.1988e-004;1.00000;2
835.559; 96.50000;-1.1025e-003;1.00000;2
840.512; 97.00000;-3.1437e-003;1.00000;2
845.458; 97.50000;-3.4349e-003;1.00000;2
850.411; 98.00000;-6.5668e-003;1.00000;2
855.36; 98.50000;-9.6310e-003;1.00000;2
860.305; 99.00000;-1.1345e-002;1.00000;2
865.247; 99.50000;-1.0747e-002;1.00000;2
870.193;100;-1.2812e-002;1.00000;2
875.142;100.5;-1.4167e-002;1.00000;2
880.098;101;-1.6684e-002;1.00000;2
885.052;101.5;-1.5954e-002;1.00000;2
890.004;102;-1.7303e-002;1.00000;2
894.956;102.5;-1.7920e-002;1.00000;2
899.902;103;-1.9245e-002;1.00000;2
902.373;103.25;-1.7815e-002;1.00000;2

File: q20.txt
#EXPORTTYPE:DATA SINGLE
#FTYPE:ANSI
#IDENTITY:005924
#DECIMAL:POINT
#SEPARATOR:SEMICOLON
#MTYPE:DSC
#SAMPLE:3
#SAMPLE MASS /mg:11.02
#REFERENCE:
#REFERENCE MASS /mg:0
#TYPE OF CRUCIBLE:DSC/TG pan Al2O3
#SAMPLE CRUCIBLE MASS /mg:0
#REFERENCE CRUCIBLE MASS /mg:0
#DSC RANGE /�V:5000
#TG RANGE /mg:5000
#TAU-R:---
#CORR. CODE:020
#EXO:+1
#RANGE:35�C/00:00/35�C/20,0(K/min)/920�C/
#SEGMENT:S2/2
#SEG. 1:35�C/00:15/35�C
#SEG. 2:35�C/20,0(K/min)/920�C

##Temp./�C;Time/min;DSC/(uV/mg);Sensit./(uV/mW)
 34.11900;15.00250; 9.6925e-004;1.00000
 34.12771;15.25250; 1.3154e-003;1.00000
 34.24319;15.50250; 1.5923e-003;1.00000
 34.64471;15.75250;-1.5231e-003;1.00000
 35.48290;16.00250;-5.6078e-003;1.00000
 36.80038;16.25250;-1.4262e-002;1.00000
 38.58895;16.50250;-2.3608e-002;1.00000
 40.80919;16.75250;-3.3716e-002;1.00000
 43.38457;17.00250;-4.3409e-002;1.00000
 46.28457;17.25250;-5.3793e-002;1.00000
 49.45557;17.50250;-6.4732e-002;1.00000
 52.86838;17.75250;-7.0755e-002;1.00000
 56.49052;18.00250;-8.3633e-002;1.00000
 60.29871;18.25250;-8.8133e-002;1.00000
 64.26776;18.50250;-8.6679e-002;1.00000
 68.38686;18.75250;-8.9725e-002;1.00000
 72.62505;19.00250;-8.9240e-002;1.00000
 76.97686;19.25250;-8.6887e-002;1.00000
 81.44562;19.50250;    -0.10426;1.00000
 86.04281;19.75250;    -0.10378;1.00000
 90.75519;20.00250;    -0.11749;1.00000
 95.54043;20.25250;    -0.10669;1.00000
100.409;20.50250;-9.7894e-002;1.00000
105.338;20.75250;    -0.10274;1.00000
110.304;21.00250;    -0.10253;1.00000
115.315;21.25250;    -0.10170;1.00000
120.365;21.50250;-9.5125e-002;1.00000
125.466;21.75250;    -0.11216;1.00000
130.616;22.00250;    -0.11873;1.00000
135.815;22.25250;    -0.12019;1.00000
141.059;22.50250;    -0.12254;1.00000
146.342;22.75250;    -0.11146;1.00000
151.657;23.00250;-9.3741e-002;1.00000
156.988;23.25250;-9.0833e-002;1.00000
162.33;23.50250;-9.6856e-002;1.00000
167.681;23.75250;-9.4433e-002;1.00000
173.024;24.00250;-8.4810e-002;1.00000
178.418;24.25250;-7.2209e-002;1.00000
183.813;24.50250;-6.7848e-002;1.00000
189.235;24.75250;-5.8709e-002;1.00000
194.669;25.00250;-5.3863e-002;1.00000
200.109;25.25250;-5.1924e-002;1.00000
205.551;25.50250;-4.7770e-002;1.00000
210.995;25.75250;-5.1993e-002;1.00000
216.435;26.00250;-3.8770e-002;1.00000
221.884;26.25250;-3.2955e-002;1.00000
227.326;26.50250;-2.6516e-002;1.00000
232.769;26.75250;-2.1324e-002;1.00000
238.208;27.00250;-1.5646e-002;1.00000
243.645;27.25250;-7.0617e-003;1.00000
249.081;27.50250; 5.5386e-004;1.00000
254.513;27.75250; 5.3309e-003;1.00000
259.938;28.00250; 1.4262e-002;1.00000
265.359;28.25250; 2.0839e-002;1.00000
270.777;28.50250; 2.8454e-002;1.00000
276.19;28.75250; 3.3993e-002;1.00000
281.589;29.00250; 4.0986e-002;1.00000
286.981;29.25250; 4.7563e-002;1.00000
292.374;29.50250; 5.4901e-002;1.00000
297.754;29.75250; 6.1686e-002;1.00000
303.122;30.00250; 6.8332e-002;1.00000
308.487;30.25250; 7.5671e-002;1.00000
313.846;30.50250; 8.2940e-002;1.00000
319.199;30.75250; 8.9240e-002;1.00000
324.539;31.00250; 9.6094e-002;1.00000
329.881;31.25250;     0.10336;1.00000
335.21;31.50250;     0.11043;1.00000
340.529;31.75250;     0.11873;1.00000
345.84;32.00250;     0.12642;1.00000
351.143;32.25250;     0.13424;1.00000
356.438;32.50250;     0.14227;1.00000
361.728;32.75250;     0.14795;1.00000
367.01;33.00250;     0.15584;1.00000
372.279;33.25250;     0.16346;1.00000
377.548;33.50250;     0.17211;1.00000
382.81;33.75250;     0.17855;1.00000
388.065;34.00250;     0.18665;1.00000
393.315;34.25250;     0.19357;1.00000
398.549;34.50250;     0.20223;1.00000
403.789;34.75250;     0.20874;1.00000
409.015;35.00250;     0.21774;1.00000
414.236;35.25250;     0.22584;1.00000
419.451;35.50250;     0.23380;1.00000
424.66;35.75250;     0.24245;1.00000
429.864;36.00250;     0.25256;1.00000
435.062;36.25250;     0.26031;1.00000
440.256;36.50250;     0.26911;1.00000
445.444;36.75250;     0.27928;1.00000
450.626;37.00250;     0.28994;1.00000
455.799;37.25250;     0.29867;1.00000
460.966;37.50250;     0.30926;1.00000
466.133;37.75250;     0.31985;1.00000
471.29;38.00250;     0.33065;1.00000
476.442;38.25250;     0.34132;1.00000
481.587;38.50250;     0.35108;1.00000
486.731;38.75250;     0.36118;1.00000
491.871;39.00250;     0.37198;1.00000
497.004;39.25250;     0.38535;1.00000
502.138;39.50250;     0.40660;1.00000
507.262;39.75250;     0.41851;1.00000
512.391;40.00250;     0.43776;1.00000
517.514;40.25250;     0.46393;1.00000
522.643;40.50250;     0.50408;1.00000
527.765;40.75250;     0.55109;1.00000
532.896;41.00250;     0.62690;1.00000
538.037;41.25250;     0.72092;1.00000
543.189;41.50250;     0.83245;1.00000
548.349;41.75250;     0.94184;1.00000
553.515;42.00250;     1.04181;1.00000
558.684;42.25250;     1.11859;1.00000
563.854;42.50250;     1.17023;1.00000
569.049;42.75250;     1.18803;1.00000
574.26;43.00250;     1.18249;1.00000
579.422;43.25250;     1.19163;1.00000
584.76;43.50250;     1.09200;1.00000
590.127;43.75250;     1.01875;1.00000
595.457;44.00250;     0.99923;1.00000
600.648;44.25250;     1.09892;1.00000
605.784;44.50250;     1.14032;1.00000
610.83;44.75250;     1.19800;1.00000
615.742;45.00250;     1.31389;1.00000
620.639;45.25250;     1.40985;1.00000
625.545;45.50250;     1.48406;1.00000
630.459;45.75250;     1.54734;1.00000
635.38;46.00250;     1.61166;1.00000
640.308;46.25250;     1.67023;1.00000
645.26;46.50250;     1.71980;1.00000
650.236;46.75250;     1.75788;1.00000
655.221;47.00250;     1.79125;1.00000
660.22;47.25250;     1.81811;1.00000
665.225;47.50250;     1.84033;1.00000
670.231;47.75250;     1.85868;1.00000
675.241;48.00250;     1.87550;1.00000
680.257;48.25250;     1.88810;1.00000
685.271;48.50250;     1.89897;1.00000
690.28;48.75250;     1.91586;1.00000
695.283;49.00250;     1.94986;1.00000
700.282;49.25250;     2.01154;1.00000
705.281;49.50250;     2.11152;1.00000
710.284;49.75250;     2.24091;1.00000
715.28;50.00250;     2.38194;1.00000
720.278;50.25250;     2.51036;1.00000
725.282;50.50250;     2.61712;1.00000
730.282;50.75250;     2.69279;1.00000
735.28;51.00250;     2.74097;1.00000
740.272;51.25250;     2.76777;1.00000
745.26;51.50250;     2.77524;1.00000
750.243;51.75250;     2.76666;1.00000
755.23;52.00250;     2.73855;1.00000
760.233;52.25250;     2.69099;1.00000
765.25;52.50250;     2.63256;1.00000
770.278;52.75250;     2.57073;1.00000
775.306;53.00250;     2.50898;1.00000
780.335;53.25250;     2.44674;1.00000
785.353;53.50250;     2.38948;1.00000
790.365;53.75250;     2.33417;1.00000
795.363;54.00250;     2.28231;1.00000
800.355;54.25250;     2.23281;1.00000
805.337;54.50250;     2.18400;1.00000
810.311;54.75250;     2.13609;1.00000
815.273;55.00250;     2.08569;1.00000
820.233;55.25250;     2.03474;1.00000
825.19;55.50250;     1.98150;1.00000
830.147;55.75250;     1.92874;1.00000
835.104;56.00250;     1.87654;1.00000
840.066;56.25250;     1.82254;1.00000
845.032;56.50250;     1.77214;1.00000
849.994;56.75250;     1.72015;1.00000
854.957;57.00250;     1.67182;1.00000
859.918;57.25250;     1.62966;1.00000
864.877;57.50250;     1.59020;1.00000
869.837;57.75250;     1.55274;1.00000
874.792;58.00250;     1.51923;1.00000
879.749;58.25250;     1.48725;1.00000
884.703;58.50250;     1.45893;1.00000
889.657;58.75250;     1.43089;1.00000
894.614;59.00250;     1.40458;1.00000