Folder: PeaksSeparation.jl/src/data/kinetics/q10

Note: README.md
# PeaksSeparation

[![Build Status](https://github.com/Manarom/PeaksSeparation.jl/actions/workflows/CI.yml/badge.svg?branch=main)](https://github.com/Manarom/PeaksSeparation.jl/actions/workflows/CI.yml?query=branch%3Amain)

Small package for peaks separation

<p float="left">
  <img src="./src/data/kinetics/peaks.png" width="320"/>
</p>

# Quick start:
Clone this repository to your local machine in `project_folder` (any name)

In julia REPL run:
```julia
  import Pkg
  cd(project_folder) # sets working folder to project_folder
  Pkg.activate(".")
  Pkg.instantiate() # to install all necessary dependencies
  include(".\\src\\PeaksSeparation.jl")
  using .PeaksSeparation
  (sol,p) = PeaksSeparation.fit_peaks(x,y,N=5) # fits five peaks to y(x) curve
  p[0] # gives baseline object
  p[1] # first peak etc
  using Plots
  plot(p)  # plots peaks
  PeaksSeparation.fit_peaks!(p) # to perform additional fitting
```
Pluto [notebook](https://github.com/Manarom/PeaksSeparation.jl/blob/main/src/dsc_peaks.jl) is also available

File: peak_1.txt
#EXPORTTYPE:DATA SINGLE
#FTYPE:ANSI
#IDENTITY:005922
#DECIMAL:POINT
#SEPARATOR:SEMICOLON
#MTYPE:DSC
#PROJECT:
#TEMPCAL:TCALZERO.TCX
#SENSITIVITY:SENSZERO.EXX
#LABORATORY:13
#REMARK:
#SAMPLE:2
#SAMPLE MASS /mg:7.28
#REFERENCE:
#REFERENCE MASS /mg:0
#TYPE OF CRUCIBLE:DSC/TG pan Al2O3
#SAMPLE CRUCIBLE MASS /mg:0
#REFERENCE CRUCIBLE MASS /mg:0
#DSC RANGE /�V:5000
#TG RANGE /mg:5000
#TAU-R:---
#CORR. CODE:020
#EXO:+1
#RANGE:35�C/00:00/35�C/10,0(K/min)/920�C/
#SEGMENT:S1-2/2
#SEG. 1:35�C/00:15/35�C
#SEG. 2:35�C/10,0(K/min)/920�C

##Temp./�C;Time/min;DSC/(uV/mg);Sensit./(uV/mW);Segment
33.98564;0.25;0.0;1.0;1
34.03218;0.75;0.0;1.0;1
34.06923;1.25;0.0;1.0;1
34.09324;1.75;0.0;1.0;1
34.12312;2.25;0.0;1.0;1
34.14771;2.75;0.0;1.0;1
34.15806;3.25;0.0;1.0;1
34.16376;3.75;0.0;1.0;1
34.177;4.25;0.0;1.0;1
34.18659;4.75;0.0;1.0;1
34.19218;5.25;0.0;1.0;1
34.19318;5.75;0.0;1.0;1
34.19906;6.25;0.0;1.0;1
34.19976;6.75;0.0;1.0;1
34.20388;7.25;0.0;1.0;1
34.20453;7.75;0.0;1.0;1
34.202;8.25;0.0;1.0;1
34.20118;8.75;0.0;1.0;1
34.20265;9.25;0.0;1.0;1
34.20324;9.75;0.0;1.0;1
34.20876;10.25;0.0;1.0;1
34.20641;10.75;0.0;1.0;1
34.20765;11.25;0.0;1.0;1
34.20853;11.75;0.0;1.0;1
34.20988;12.25;0.0;1.0;1
34.20865;12.75;0.0;1.0;1
34.20865;13.25;0.0;1.0;1
34.21424;13.75;0.0;1.0;1
34.21053;14.25;0.0;1.0;1
34.209;14.75;0.0;1.0;1
34.21049;15.25;0.0;1.0;2
34.4492;15.75;0.0;1.0;2
35.4671;16.25;0.0;1.0;2
37.34251;16.75;0.0;1.0;2
39.90639;17.25;0.0;1.0;2
42.97527;17.75;0.0;1.0;2
46.42406;18.25;0.0;1.0;2
50.19397;18.75;0.0;1.0;2
54.22524;19.25;0.0;1.0;2
58.4711;19.75;0.0;1.0;2
62.89915;20.25;0.0;1.0;2
67.4673;20.75;0.0;1.0;2
72.14683;21.25;1.3157e-320;1.0;2
76.90669;21.75;6.55435e-314;1.0;2
81.75552;22.25;3.68192e-307;1.0;2
86.67746;22.75;2.19824e-300;1.0;2
91.68109;23.25;1.42155e-293;1.0;2
96.73827;23.75;9.05029e-287;1.0;2
101.844;24.25;5.55824e-280;1.0;2
106.979;24.75;3.08743e-273;1.0;2
112.126;25.25;1.46843e-266;1.0;2
117.277;25.75;5.84323e-260;1.0;2
122.435;26.25;1.95767e-253;1.0;2
127.605;26.75;5.6055e-247;1.0;2
132.809;27.25;1.45419e-240;1.0;2
138.029;27.75;3.24808e-234;1.0;2
143.2681;28.25;6.28933e-228;1.0;2
148.522;28.75;1.03876e-221;1.0;2
153.785;29.25;1.44326e-215;1.0;2
159.044;29.75;1.62221e-209;1.0;2
164.299;30.25;1.47652e-203;1.0;2
169.547;30.75;1.08449e-197;1.0;2
174.8;31.25;6.59541e-192;1.0;2
180.05;31.75;3.26958e-186;1.0;2
185.301;32.25;1.33143e-180;1.0;2
190.5591;32.75;4.51673e-175;1.0;2
195.817;33.25;1.25612e-169;1.0;2
201.073;33.75;2.84709e-164;1.0;2
206.33;34.25;5.29788e-159;1.0;2
211.578;34.75;7.91361e-154;1.0;2
216.827;35.25;9.72059e-149;1.0;2
222.074;35.75;9.74618e-144;1.0;2
227.314;36.25;7.901e-139;1.0;2
232.555;36.75;5.26146e-134;1.0;2
237.791;37.25;2.84133e-129;1.0;2
243.019;37.75;1.23986e-124;1.0;2
248.239;38.25;4.37311e-120;1.0;2
253.459;38.75;1.26725e-115;1.0;2
258.677;39.25;3.00506e-111;1.0;2
263.892;39.75;5.81593e-107;1.0;2
269.1;40.25;9.146e-103;1.0;2
274.306;40.75;1.1777e-98;1.0;2
279.505;41.25;1.23438e-94;1.0;2
284.701;41.75;1.05715e-90;1.0;2
289.889;42.25;7.34757e-87;1.0;2
295.076;42.75;4.20421e-83;1.0;2
300.255;43.25;1.9568e-79;1.0;2
305.438;43.75;7.54174e-76;1.0;2
310.612;44.25;2.36451e-72;1.0;2
315.785;44.75;6.10548e-69;1.0;2
320.95;45.25;1.28249e-65;1.0;2
326.108;45.75;2.20145e-62;1.0;2
331.2577;46.25;3.08676e-59;1.0;2
336.403;46.75;3.55183e-56;1.0;2
341.5496;47.25;3.38111e-53;1.0;2
346.695;47.75;2.65512e-50;1.0;2
351.833;48.25;1.70672e-47;1.0;2
356.966;48.75;9.01998e-45;1.0;2
362.093;49.25;3.91355e-42;1.0;2
367.218;49.75;1.40064e-39;1.0;2
372.336;50.25;4.11832e-37;1.0;2
377.455;50.75;1.00354e-34;1.0;2
382.5729;51.25;2.02266e-32;1.0;2
387.685;51.75;3.35378e-30;1.0;2
392.799;52.25;4.61905e-28;1.0;2
397.901;52.75;5.20286e-26;1.0;2
402.999;53.25;4.84414e-24;1.0;2
408.097;53.75;3.73953e-22;1.0;2
413.188;54.25;2.38069e-20;1.0;2
418.2771;54.75;1.25519e-18;1.0;2
423.368;55.25;5.49751e-17;1.0;2
428.453;55.75;1.98916e-15;1.0;2
433.535;56.25;5.96176e-14;1.0;2
438.611;56.75;1.47703e-12;1.0;2
443.681;57.25;3.02905e-11;1.0;2
448.75;57.75;5.15966e-10;1.0;2
453.818;58.25;7.29504e-09;1.0;2
458.884;58.75;8.56338e-08;1.0;2
463.949;59.25;8.35034e-07;1.0;2
469.003;59.75;6.7399e-06;1.0;2
474.059;60.25;4.5258e-05;1.0;2
479.109;60.75;0.000252348;1.0;2
484.1589;61.25;0.00117052;1.0;2
489.207;61.75;0.00451537;1.0;2
494.248;62.25;0.0144715;1.0;2
499.294;62.75;0.0386447;1.0;2
504.348;63.25;0.0859947;1.0;2
509.414;63.75;0.159349;1.0;2
514.481;64.25;0.245406;1.0;2
519.558;64.75;0.314152;1.0;2
524.637;65.25;0.333932;1.0;2
529.719;65.75;0.294661;1.0;2
534.819;66.25;0.215509;1.0;2
540.301;66.75;0.124906;1.0;2
545.883;67.25;0.0573733;1.0;2
551.053;67.75;0.0228402;1.0;2
556.044;68.25;0.00781813;1.0;2
560.9793;68.75;0.00226973;1.0;2
565.888;69.25;0.000557242;1.0;2
570.794;69.75;0.000115114;1.0;2
575.705;70.25;1.99493e-05;1.0;2
580.618;70.75;2.90356e-06;1.0;2
585.54;71.25;3.53668e-07;1.0;2
590.47;71.75;3.60264e-08;1.0;2
595.411;72.25;3.06181e-09;1.0;2
600.366;72.75;2.16637e-10;1.0;2
605.318;73.25;1.28611e-11;1.0;2
610.269;73.75;6.40109e-13;1.0;2
615.234;74.25;2.6451e-14;1.0;2
620.198;74.75;9.15371e-16;1.0;2
625.172;75.25;2.63332e-17;1.0;2
630.145;75.75;6.3427e-19;1.0;2
635.12;76.25;1.27572e-20;1.0;2
640.0961;76.75;2.14595e-22;1.0;2
645.073;77.25;3.01516e-24;1.0;2
650.051;77.75;3.54213e-26;1.0;2
655.0239;78.25;3.49602e-28;1.0;2
659.994;78.75;2.89415e-30;1.0;2
664.953;79.25;2.02891e-32;1.0;2
669.913;79.75;1.18941e-34;1.0;2
674.873;80.25;5.83947e-37;1.0;2
679.8299;80.75;2.40909e-39;1.0;2
684.783;81.25;8.36076e-42;1.0;2
689.732;81.75;2.44251e-44;1.0;2
694.679;82.25;6.00391e-47;1.0;2
699.622;82.75;1.24104e-49;1.0;2
704.56;83.25;2.16644e-52;1.0;2
709.502;83.75;3.15398e-55;1.0;2
714.4421;84.25;3.86399e-58;1.0;2
719.3678;84.75;4.0489e-61;1.0;2
724.29;85.25;3.58092e-64;1.0;2
729.251;85.75;2.51036e-67;1.0;2
734.207;86.25;1.48299e-70;1.0;2
739.14;86.75;7.61388e-74;1.0;2
744.053;87.25;3.3871e-77;1.0;2
748.954;87.75;1.29128e-80;1.0;2
753.854;88.25;4.14443e-84;1.0;2
758.766;88.75;1.09429e-87;1.0;2
763.697;89.25;2.35652e-91;1.0;2
768.649;89.75;4.0918e-95;1.0;2
773.611;90.25;5.86221e-99;1.0;2
778.574;90.75;7.00999e-103;1.0;2
783.539;91.25;6.98447e-107;1.0;2
788.504;91.75;5.8349e-111;1.0;2
793.464;92.25;4.1228e-115;1.0;2
798.417;92.75;2.47122e-119;1.0;2
803.361;93.25;1.26181e-123;1.0;2
808.311;93.75;5.34779e-128;1.0;2
813.258;94.25;1.90865e-132;1.0;2
818.21;94.75;5.65571e-137;1.0;2
823.164;95.25;1.39647e-141;1.0;2
828.121;95.75;2.87297e-146;1.0;2
833.079;96.25;4.94573e-151;1.0;2
838.036;96.75;7.12422e-156;1.0;2
842.984;97.25;8.80073e-161;1.0;2
847.935;97.75;9.02407e-166;1.0;2
852.884;98.25;7.80657e-171;1.0;2
857.833;98.75;5.66419e-176;1.0;2
862.777;99.25;3.47797e-181;1.0;2
867.722;99.75;1.78952e-186;1.0;2
872.666;100.25;7.7201e-192;1.0;2
877.622;100.75;2.71711e-197;1.0;2
882.575;101.25;8.04815e-203;1.0;2
887.528;101.75;1.99793e-208;1.0;2
892.48;102.25;4.17349e-214;1.0;2
897.43;102.75;7.35123e-220;1.0;2
902.373;103.25;1.1024e-225;1.0;2

File: peak_2.txt
#EXPORTTYPE:DATA SINGLE
#FTYPE:ANSI
#IDENTITY:005922
#DECIMAL:POINT
#SEPARATOR:SEMICOLON
#MTYPE:DSC
#PROJECT:
#TEMPCAL:TCALZERO.TCX
#SENSITIVITY:SENSZERO.EXX
#LABORATORY:13
#REMARK:
#SAMPLE:2
#SAMPLE MASS /mg:7.28
#REFERENCE:
#REFERENCE MASS /mg:0
#TYPE OF CRUCIBLE:DSC/TG pan Al2O3
#SAMPLE CRUCIBLE MASS /mg:0
#REFERENCE CRUCIBLE MASS /mg:0
#DSC RANGE /�V:5000
#TG RANGE /mg:5000
#TAU-R:---
#CORR. CODE:020
#EXO:+1
#RANGE:35�C/00:00/35�C/10,0(K/min)/920�C/
#SEGMENT:S1-2/2
#SEG. 1:35�C/00:15/35�C
#SEG. 2:35�C/10,0(K/min)/920�C

##Temp./�C;Time/min;DSC/(uV/mg);Sensit./(uV/mW);Segment
33.98564;0.25;7.08135e-86;1.0;1
34.03218;0.75;7.32706e-86;1.0;1
34.06923;1.25;7.52873e-86;1.0;1
34.09324;1.75;7.66236e-86;1.0;1
34.12312;2.25;7.83198e-86;1.0;1
34.14771;2.75;7.97437e-86;1.0;1
34.15806;3.25;8.03508e-86;1.0;1
34.16376;3.75;8.0687e-86;1.0;1
34.177;4.25;8.14736e-86;1.0;1
34.18659;4.75;8.2048e-86;1.0;1
34.19218;5.25;8.23847e-86;1.0;1
34.19318;5.75;8.24451e-86;1.0;1
34.19906;6.25;8.28011e-86;1.0;1
34.19976;6.75;8.28435e-86;1.0;1
34.20388;7.25;8.3094e-86;1.0;1
34.20453;7.75;8.31335e-86;1.0;1
34.202;8.25;8.29796e-86;1.0;1
34.20118;8.75;8.29298e-86;1.0;1
34.20265;9.25;8.30191e-86;1.0;1
34.20324;9.75;8.3055e-86;1.0;1
34.20876;10.25;8.33916e-86;1.0;1
34.20641;10.75;8.32481e-86;1.0;1
34.20765;11.25;8.33238e-86;1.0;1
34.20853;11.75;8.33775e-86;1.0;1
34.20988;12.25;8.346e-86;1.0;1
34.20865;12.75;8.33849e-86;1.0;1
34.20865;13.25;8.33849e-86;1.0;1
34.21424;13.75;8.3727e-86;1.0;1
34.21053;14.25;8.34998e-86;1.0;1
34.209;14.75;8.34062e-86;1.0;1
34.21049;15.25;8.34973e-86;1.0;2
34.4492;15.75;9.94505e-86;1.0;2
35.4671;16.25;2.09423e-85;1.0;2
37.34251;16.75;8.22778e-85;1.0;2
39.90639;17.25;5.30046e-84;1.0;2
42.97527;17.75;4.87033e-83;1.0;2
46.42406;18.25;5.79916e-82;1.0;2
50.19397;18.75;8.53594e-81;1.0;2
54.22524;19.25;1.48168e-79;1.0;2
58.4711;19.75;2.92276e-78;1.0;2
62.89915;20.25;6.3824e-77;1.0;2
67.4673;20.75;1.49392e-75;1.0;2
72.14683;21.25;3.66603e-74;1.0;2
76.90669;21.75;9.2165e-73;1.0;2
81.75552;22.25;2.38375e-71;1.0;2
86.67746;22.75;6.26557e-70;1.0;2
91.68109;23.25;1.68058e-68;1.0;2
96.73827;23.75;4.50942e-67;1.0;2
101.844;24.25;1.20542e-65;1.0;2
106.979;24.75;3.16716e-64;1.0;2
112.126;25.25;8.08582e-63;1.0;2
117.277;25.75;1.99615e-61;1.0;2
122.435;26.25;4.77156e-60;1.0;2
127.605;26.75;1.10792e-58;1.0;2
132.809;27.25;2.53003e-57;1.0;2
138.029;27.75;5.62145e-56;1.0;2
143.2681;28.25;1.2171e-54;1.0;2
148.522;28.75;2.55908e-53;1.0;2
153.785;29.25;5.21021e-52;1.0;2
159.044;29.75;1.01865e-50;1.0;2
164.299;30.25;1.91285e-49;1.0;2
169.547;30.75;3.44739e-48;1.0;2
174.8;31.25;5.99582e-47;1.0;2
180.05;31.75;1.00299e-45;1.0;2
185.301;32.25;1.61642e-44;1.0;2
190.5591;32.75;2.5173e-43;1.0;2
195.817;33.25;3.77524e-42;1.0;2
201.073;33.75;5.44538e-41;1.0;2
206.33;34.25;7.56614e-40;1.0;2
211.578;34.75;1.00777e-38;1.0;2
216.827;35.25;1.29347e-37;1.0;2
222.074;35.75;1.5972e-36;1.0;2
227.314;36.25;1.8935e-35;1.0;2
232.555;36.75;2.16259e-34;1.0;2
237.791;37.25;2.37278e-33;1.0;2
243.019;37.75;2.49897e-32;1.0;2
248.239;38.25;2.52643e-31;1.0;2
253.459;38.75;2.46065e-30;1.0;2
258.677;39.25;2.30678e-29;1.0;2
263.892;39.75;2.08026e-28;1.0;2
269.1;40.25;1.8028e-27;1.0;2
274.306;40.75;1.50395e-26;1.0;2
279.505;41.25;1.20612e-25;1.0;2
284.701;41.75;9.30648e-25;1.0;2
289.889;42.25;6.89828e-24;1.0;2
295.076;42.75;4.92782e-23;1.0;2
300.255;43.25;3.38327e-22;1.0;2
305.438;43.75;2.24154e-21;1.0;2
310.612;44.25;1.4273e-20;1.0;2
315.785;44.75;8.75917e-20;1.0;2
320.95;45.25;5.16591e-19;1.0;2
326.108;45.75;2.93093e-18;1.0;2
331.2577;46.25;1.59949e-17;1.0;2
336.403;46.75;8.40493e-17;1.0;2
341.5496;47.25;4.26073e-16;1.0;2
346.695;47.75;2.08227e-15;1.0;2
351.833;48.25;9.79228e-15;1.0;2
356.966;48.75;4.43574e-14;1.0;2
362.093;49.25;1.93471e-13;1.0;2
367.218;49.75;8.13437e-13;1.0;2
372.336;50.25;3.29345e-12;1.0;2
377.455;50.75;1.28682e-11;1.0;2
382.5729;51.25;4.84975e-11;1.0;2
387.685;51.75;1.76057e-10;1.0;2
392.799;52.25;6.17121e-10;1.0;2
397.901;52.75;2.08037e-09;1.0;2
402.999;53.25;6.76273e-09;1.0;2
408.097;53.75;2.12158e-08;1.0;2
413.188;54.25;6.41391e-08;1.0;2
418.2771;54.75;1.87063e-07;1.0;2
423.368;55.25;5.26759e-07;1.0;2
428.453;55.75;1.42998e-06;1.0;2
433.535;56.25;3.7449e-06;1.0;2
438.611;56.75;9.45524e-06;1.0;2
443.681;57.25;2.30234e-05;1.0;2
448.75;57.75;5.41195e-05;1.0;2
453.818;58.25;0.00012278;1.0;2
458.884;58.75;0.000268856;1.0;2
463.949;59.25;0.00056832;1.0;2
469.003;59.75;0.00115825;1.0;2
474.059;60.25;0.00227961;1.0;2
479.109;60.75;0.00432972;1.0;2
484.1589;61.25;0.00794106;1.0;2
489.207;61.75;0.0140621;1.0;2
494.248;62.25;0.0240296;1.0;2
499.294;62.75;0.0396757;1.0;2
504.348;63.25;0.0633153;1.0;2
509.414;63.75;0.0976585;1.0;2
514.481;64.25;0.145442;1.0;2
519.558;64.75;0.209268;1.0;2
524.637;65.25;0.290713;1.0;2
529.719;65.75;0.389881;1.0;2
534.819;66.25;0.505158;1.0;2
540.301;66.75;0.641358;1.0;2
545.883;67.25;0.783962;1.0;2
551.053;67.75;0.908946;1.0;2
556.044;68.25;1.01271;1.0;2
560.9793;68.75;1.08979;1.0;2
565.888;69.25;1.13413;1.0;2
570.794;69.75;1.14198;1.0;2
575.705;70.25;1.11256;1.0;2
580.618;70.75;1.04868;1.0;2
585.54;71.25;0.956146;1.0;2
590.47;71.75;0.843136;1.0;2
595.411;72.25;0.718861;1.0;2
600.366;72.75;0.592426;1.0;2
605.318;73.25;0.472157;1.0;2
610.269;73.75;0.363898;1.0;2
615.234;74.25;0.270968;1.0;2
620.198;74.75;0.195082;1.0;2
625.172;75.25;0.135689;1.0;2
630.145;75.75;0.0912433;1.0;2
635.12;76.25;0.0593009;1.0;2
640.0961;76.75;0.0372558;1.0;2
645.073;77.25;0.022622;1.0;2
650.051;77.75;0.0132777;1.0;2
655.0239;78.25;0.0075375;1.0;2
659.994;78.75;0.00413777;1.0;2
664.953;79.25;0.00219929;1.0;2
669.913;79.75;0.00113004;1.0;2
674.873;80.25;0.00056141;1.0;2
679.8299;80.75;0.0002698;1.0;2
684.783;81.25;0.000125444;1.0;2
689.732;81.75;5.64352e-05;1.0;2
694.679;82.25;2.45656e-05;1.0;2
699.622;82.75;1.03456e-05;1.0;2
704.56;83.25;4.21794e-06;1.0;2
709.502;83.75;1.66185e-06;1.0;2
714.4421;84.25;6.33563e-07;1.0;2
719.3678;84.75;2.34274e-07;1.0;2
724.29;85.25;8.38644e-08;1.0;2
729.251;85.75;2.87959e-08;1.0;2
734.207;86.25;9.56882e-09;1.0;2
739.14;86.75;3.09154e-09;1.0;2
744.053;87.25;9.70797e-10;1.0;2
748.954;87.75;2.95821e-10;1.0;2
753.854;88.25;8.72411e-11;1.0;2
758.766;88.75;2.48127e-11;1.0;2
763.697;89.25;6.79656e-12;1.0;2
768.649;89.75;1.78966e-12;1.0;2
773.611;90.25;4.54604e-13;1.0;2
778.574;90.75;1.11595e-13;1.0;2
783.539;91.25;2.64656e-14;1.0;2
788.504;91.75;6.06978e-15;1.0;2
793.464;92.25;1.34807e-15;1.0;2
798.417;92.75;2.90078e-16;1.0;2
803.361;93.25;6.05166e-17;1.0;2
808.311;93.75;1.21902e-17;1.0;2
813.258;94.25;2.37637e-18;1.0;2
818.21;94.75;4.47307e-19;1.0;2
823.164;95.25;8.13446e-20;1.0;2
828.121;95.75;1.42915e-20;1.0;2
833.079;96.25;2.42742e-21;1.0;2
838.036;96.75;3.98598e-22;1.0;2
842.984;97.25;6.35301e-23;1.0;2
847.935;97.75;9.77645e-24;1.0;2
852.884;98.25;1.45643e-24;1.0;2
857.833;98.75;2.09842e-25;1.0;2
862.777;99.25;2.92838e-26;1.0;2
867.722;99.75;3.95178e-27;1.0;2
872.666;100.25;5.1574e-28;1.0;2
877.622;100.75;6.48004e-29;1.0;2
882.575;101.25;7.87877e-30;1.0;2
887.528;101.75;9.26351e-31;1.0;2
892.48;102.25;1.05395e-31;1.0;2
897.43;102.75;1.16075e-32;1.0;2
902.373;103.25;1.23948e-33;1.0;2

File: peak_3.txt
#EXPORTTYPE:DATA SINGLE
#FTYPE:ANSI
#IDENTITY:005922
#DECIMAL:POINT
#SEPARATOR:SEMICOLON
#MTYPE:DSC
#PROJECT:
#TEMPCAL:TCALZERO.TCX
#SENSITIVITY:SENSZERO.EXX
#LABORATORY:13
#REMARK:
#SAMPLE:2
#SAMPLE MASS /mg:7.28
#REFERENCE:
#REFERENCE MASS /mg:0
#TYPE OF CRUCIBLE:DSC/TG pan Al2O3
#SAMPLE CRUCIBLE MASS /mg:0
#REFERENCE CRUCIBLE MASS /mg:0
#DSC RANGE /�V:5000
#TG RANGE /mg:5000
#TAU-R:---
#CORR. CODE:020
#EXO:+1
#RANGE:35�C/00:00/35�C/10,0(K/min)/920�C/
#SEGMENT:S1-2/2
#SEG. 1:35�C/00:15/35�C
#SEG. 2:35�C/10,0(K/min)/920�C

##Temp./�C;Time/min;DSC/(uV/mg);Sensit./(uV/mW);Segment
33.98564;0.25;1.32113e-52;1.0;1
34.03218;0.75;1.34567e-52;1.0;1
34.06923;1.25;1.36552e-52;1.0;1
34.09324;1.75;1.37855e-52;1.0;1
34.12312;2.25;1.39493e-52;1.0;1
34.14771;2.75;1.40855e-52;1.0;1
34.15806;3.25;1.41433e-52;1.0;1
34.16376;3.75;1.41752e-52;1.0;1
34.177;4.25;1.42495e-52;1.0;1
34.18659;4.75;1.43037e-52;1.0;1
34.19218;5.25;1.43353e-52;1.0;1
34.19318;5.75;1.4341e-52;1.0;1
34.19906;6.25;1.43743e-52;1.0;1
34.19976;6.75;1.43783e-52;1.0;1
34.20388;7.25;1.44018e-52;1.0;1
34.20453;7.75;1.44055e-52;1.0;1
34.202;8.25;1.43911e-52;1.0;1
34.20118;8.75;1.43864e-52;1.0;1
34.20265;9.25;1.43948e-52;1.0;1
34.20324;9.75;1.43981e-52;1.0;1
34.20876;10.25;1.44296e-52;1.0;1
34.20641;10.75;1.44162e-52;1.0;1
34.20765;11.25;1.44232e-52;1.0;1
34.20853;11.75;1.44282e-52;1.0;1
34.20988;12.25;1.44359e-52;1.0;1
34.20865;12.75;1.44289e-52;1.0;1
34.20865;13.25;1.44289e-52;1.0;1
34.21424;13.75;1.44608e-52;1.0;1
34.21053;14.25;1.44397e-52;1.0;1
34.209;14.75;1.44309e-52;1.0;1
34.21049;15.25;1.44394e-52;1.0;2
34.4492;15.75;1.58678e-52;1.0;2
35.4671;16.25;2.37152e-52;1.0;2
37.34251;16.75;4.96344e-52;1.0;2
39.90639;17.25;1.35731e-51;1.0;2
42.97527;17.75;4.4997e-51;1.0;2
46.42406;18.25;1.71769e-50;1.0;2
50.19397;18.75;7.36252e-50;1.0;2
54.22524;19.25;3.45526e-49;1.0;2
58.4711;19.75;1.74063e-48;1.0;2
62.89915;20.25;9.2818e-48;1.0;2
67.4673;20.75;5.14926e-47;1.0;2
72.14683;21.25;2.93684e-46;1.0;2
76.90669;21.75;1.70075e-45;1.0;2
81.75552;22.25;1.00246e-44;1.0;2
86.67746;22.75;5.97463e-44;1.0;2
91.68109;23.25;3.60908e-43;1.0;2
96.73827;23.75;2.18597e-42;1.0;2
101.844;24.25;1.32465e-41;1.0;2
106.979;24.75;7.97232e-41;1.0;2
112.126;25.25;4.73556e-40;1.0;2
117.277;25.75;2.76889e-39;1.0;2
122.435;26.25;1.59483e-38;1.0;2
127.605;26.75;9.06499e-38;1.0;2
132.809;27.25;5.11982e-37;1.0;2
138.029;27.75;2.85637e-36;1.0;2
143.2681;28.25;1.57551e-35;1.0;2
148.522;28.75;8.5757e-35;1.0;2
153.785;29.25;4.59897e-34;1.0;2
159.044;29.75;2.41871e-33;1.0;2
164.299;30.25;1.24762e-32;1.0;2
169.547;30.75;6.30915e-32;1.0;2
174.8;31.25;3.13752e-31;1.0;2
180.05;31.75;1.53148e-30;1.0;2
185.301;32.25;7.34433e-30;1.0;2
190.5591;32.75;3.46619e-29;1.0;2
195.817;33.25;1.60682e-28;1.0;2
201.073;33.75;7.31113e-28;1.0;2
206.33;34.25;3.26809e-27;1.0;2
211.578;34.75;1.43114e-26;1.0;2
216.827;35.25;6.15808e-26;1.0;2
222.074;35.75;2.60122e-25;1.0;2
227.314;36.25;1.07735e-24;1.0;2
232.555;36.75;4.38373e-24;1.0;2
237.791;37.25;1.74955e-23;1.0;2
243.019;37.75;6.84537e-23;1.0;2
248.239;38.25;2.62577e-22;1.0;2
253.459;38.75;9.89482e-22;1.0;2
258.677;39.25;3.66122e-21;1.0;2
263.892;39.75;1.3297e-20;1.0;2
269.1;40.25;4.73734e-20;1.0;2
274.306;40.75;1.65728e-19;1.0;2
279.505;41.25;5.68837e-19;1.0;2
284.701;41.75;1.91656e-18;1.0;2
289.889;42.25;6.33271e-18;1.0;2
295.076;42.75;2.05598e-17;1.0;2
300.255;43.25;6.54778e-17;1.0;2
305.438;43.75;2.05055e-16;1.0;2
310.612;44.25;6.29903e-16;1.0;2
315.785;44.75;1.90126e-15;1.0;2
320.95;45.25;5.62875e-15;1.0;2
326.108;45.75;1.63546e-14;1.0;2
331.2577;46.25;4.66318e-14;1.0;2
336.403;46.75;1.30562e-13;1.0;2
341.5496;47.25;3.59374e-13;1.0;2
346.695;47.75;9.72056e-13;1.0;2
351.833;48.25;2.58069e-12;1.0;2
356.966;48.75;6.72898e-12;1.0;2
362.093;49.25;1.72274e-11;1.0;2
367.218;49.75;4.33364e-11;1.0;2
372.336;50.25;1.07043e-10;1.0;2
377.455;50.75;2.59974e-10;1.0;2
382.5729;51.25;6.20627e-10;1.0;2
387.685;51.75;1.455e-09;1.0;2
392.799;52.25;3.35518e-09;1.0;2
397.901;52.75;7.58978e-09;1.0;2
402.999;53.25;1.6872e-08;1.0;2
408.097;53.75;3.6877e-08;1.0;2
413.188;54.25;7.91703e-08;1.0;2
418.2771;54.75;1.67073e-07;1.0;2
423.368;55.25;3.46764e-07;1.0;2
428.453;55.75;7.07087e-07;1.0;2
433.535;56.25;1.41719e-06;1.0;2
438.611;56.75;2.79058e-06;1.0;2
443.681;57.25;5.39958e-06;1.0;2
448.75;57.75;1.02738e-05;1.0;2
453.818;58.25;1.9219e-05;1.0;2
458.884;58.75;3.53491e-05;1.0;2
463.949;59.25;6.39318e-05;1.0;2
469.003;59.75;0.000113579;1.0;2
474.059;60.25;0.000198467;1.0;2
479.109;60.75;0.000340895;1.0;2
484.1589;61.25;0.000575871;1.0;2
489.207;61.75;0.000956622;1.0;2
494.248;62.25;0.00156187;1.0;2
499.294;62.75;0.00250924;1.0;2
504.348;63.25;0.00396809;1.0;2
509.414;63.75;0.00617758;1.0;2
514.481;64.25;0.0094588;1.0;2
519.558;64.75;0.0142539;1.0;2
524.637;65.25;0.0211267;1.0;2
529.719;65.75;0.0307961;1.0;2
534.819;66.25;0.0441988;1.0;2
540.301;66.75;0.0639542;1.0;2
545.883;67.25;0.0913066;1.0;2
551.053;67.75;0.124702;1.0;2
556.044;68.25;0.165725;1.0;2
560.9793;68.75;0.216072;1.0;2
565.888;69.25;0.27692;1.0;2
570.794;69.75;0.349324;1.0;2
575.705;70.25;0.433908;1.0;2
580.618;70.75;0.530601;1.0;2
585.54;71.25;0.63893;1.0;2
590.47;71.75;0.757545;1.0;2
595.411;72.25;0.884369;1.0;2
600.366;72.75;1.01649;1.0;2
605.318;73.25;1.14974;1.0;2
610.269;73.75;1.27983;1.0;2
615.234;74.25;1.40241;1.0;2
620.198;74.75;1.51224;1.0;2
625.172;75.25;1.60486;1.0;2
630.145;75.75;1.67591;1.0;2
635.12;76.25;1.72217;1.0;2
640.0961;76.75;1.74139;1.0;2
645.073;77.25;1.73266;1.0;2
650.051;77.75;1.69637;1.0;2
655.0239;78.25;1.63433;1.0;2
659.994;78.75;1.54944;1.0;2
664.953;79.25;1.44579;1.0;2
669.913;79.75;1.32759;1.0;2
674.873;80.25;1.19968;1.0;2
679.8299;80.75;1.06695;1.0;2
684.783;81.25;0.93393;1.0;2
689.732;81.75;0.804636;1.0;2
694.679;82.25;0.682347;1.0;2
699.622;82.75;0.56955;1.0;2
704.56;83.25;0.468;1.0;2
709.502;83.75;0.378425;1.0;2
714.4421;84.25;0.301202;1.0;2
719.3678;84.75;0.236126;1.0;2
724.29;85.25;0.182245;1.0;2
729.251;85.75;0.138147;1.0;2
734.207;86.25;0.103081;1.0;2
739.14;86.75;0.0758094;1.0;2
744.053;87.25;0.0549508;1.0;2
748.954;87.75;0.0392436;1.0;2
753.854;88.25;0.0275925;1.0;2
758.766;88.75;0.0190805;1.0;2
763.697;89.25;0.0129706;1.0;2
768.649;89.75;0.00866246;1.0;2
773.611;90.25;0.00568935;1.0;2
778.574;90.75;0.00367666;1.0;2
783.539;91.25;0.00233762;1.0;2
788.504;91.75;0.00146269;1.0;2
793.464;92.25;0.000901134;1.0;2
798.417;92.75;0.00054671;1.0;2
803.361;93.25;0.00032671;1.0;2
808.311;93.75;0.000192054;1.0;2
813.258;94.25;0.000111139;1.0;2
818.21;94.75;6.32646e-05;1.0;2
823.164;95.25;3.54313e-05;1.0;2
828.121;95.75;1.95227e-05;1.0;2
833.079;96.25;1.05856e-05;1.0;2
838.036;96.75;5.64828e-06;1.0;2
842.984;97.25;2.96996e-06;1.0;2
847.935;97.75;1.53609e-06;1.0;2
852.884;98.25;7.82205e-07;1.0;2
857.833;98.75;3.92027e-07;1.0;2
862.777;99.25;1.93478e-07;1.0;2
867.722;99.75;9.39769e-08;1.0;2
872.666;100.25;4.49259e-08;1.0;2
877.622;100.75;2.1103e-08;1.0;2
882.575;101.25;9.75811e-09;1.0;2
887.528;101.75;4.44075e-09;1.0;2
892.48;102.25;1.9894e-09;1.0;2
897.43;102.75;8.77449e-10;1.0;2
902.373;103.25;3.81258e-10;1.0;2