Folder: PeaksSeparation.jl/src/data/kinetics/q20

Note: README.md
# PeaksSeparation

[![Build Status](https://github.com/Manarom/PeaksSeparation.jl/actions/workflows/CI.yml/badge.svg?branch=main)](https://github.com/Manarom/PeaksSeparation.jl/actions/workflows/CI.yml?query=branch%3Amain)

Small package for peaks separation

<p float="left">
  <img src="./src/data/kinetics/peaks.png" width="320"/>
</p>

# Quick start:
Clone this repository to your local machine in `project_folder` (any name)

In julia REPL run:
```julia
  import Pkg
  cd(project_folder) # sets working folder to project_folder
  Pkg.activate(".")
  Pkg.instantiate() # to install all necessary dependencies
  include(".\\src\\PeaksSeparation.jl")
  using .PeaksSeparation
  (sol,p) = PeaksSeparation.fit_peaks(x,y,N=5) # fits five peaks to y(x) curve
  p[0] # gives baseline object
  p[1] # first peak etc
  using Plots
  plot(p)  # plots peaks
  PeaksSeparation.fit_peaks!(p) # to perform additional fitting
```
Pluto [notebook](https://github.com/Manarom/PeaksSeparation.jl/blob/main/src/dsc_peaks.jl) is also available

File: peak_1.txt
#EXPORTTYPE:DATA SINGLE
#FTYPE:ANSI
#IDENTITY:005924
#DECIMAL:POINT
#SEPARATOR:SEMICOLON
#MTYPE:DSC
#PROJECT:
#DATE/TIME:22.07.2025 13:59
#CORR. FILE:005923_bline_Al2O3_900_20_N2_20_air_20.ngb-bs1
#TEMPCAL:TCALZERO.TCX
#SENSITIVITY:SENSZERO.EXX
#LABORATORY:13
#REMARK:
#SAMPLE:3
#SAMPLE MASS /mg:11.02
#REFERENCE:
#REFERENCE MASS /mg:0
#TYPE OF CRUCIBLE:DSC/TG pan Al2O3
#SAMPLE CRUCIBLE MASS /mg:0
#REFERENCE CRUCIBLE MASS /mg:0
#DSC RANGE /�V:5000
#TG RANGE /mg:5000
#TAU-R:---
#CORR. CODE:020
#EXO:+1
#RANGE:35�C/00:00/35�C/20,0(K/min)/920�C/
#SEGMENT:S2/2
#SEG. 1:35�C/00:15/35�C
#SEG. 2:35�C/20,0(K/min)/920�C

##Temp./�C;Time/min;DSC/(uV/mg);Sensit./(uV/mW)
34.12771;15.2525;1.86653e-131;1.0
34.24319;15.5025;2.1271e-131;1.0
34.64471;15.7525;3.3498e-131;1.0
35.4829;16.0025;8.63514e-131;1.0
36.80038;16.2525;3.81387e-130;1.0
38.58895;16.5025;2.84812e-129;1.0
40.80919;16.7525;3.42279e-128;1.0
43.38457;17.0025;6.04247e-127;1.0
46.28457;17.2525;1.50614e-125;1.0
49.45557;17.5025;4.96739e-124;1.0
52.86838;17.7525;2.08823e-122;1.0
56.49052;18.0025;1.07457e-120;1.0
60.29871;18.2525;6.56918e-119;1.0
64.26776;18.5025;4.62347e-117;1.0
68.38686;18.7525;3.68859e-115;1.0
72.62505;19.0025;3.21632e-113;1.0
76.97686;19.2525;3.03804e-111;1.0
81.44562;19.5025;3.10944e-109;1.0
86.04281;19.7525;3.47749e-107;1.0
90.75519;20.0025;4.17726e-105;1.0
95.54043;20.2525;5.14818e-103;1.0
100.409;20.5025;6.55969e-101;1.0
105.338;20.7525;8.43612e-99;1.0
110.304;21.0025;1.0681e-96;1.0
115.315;21.2525;1.33921e-94;1.0
120.365;21.5025;1.65159e-92;1.0
125.466;21.7525;2.02389e-90;1.0
130.616;22.0025;2.45569e-88;1.0
135.815;22.2525;2.94592e-86;1.0
141.059;22.5025;3.47183e-84;1.0
146.342;22.7525;3.99803e-82;1.0
151.657;23.0025;4.4607e-80;1.0
156.988;23.2525;4.75425e-78;1.0
162.33;23.5025;4.81278e-76;1.0
167.6811;23.7525;4.6231e-74;1.0
173.024;24.0025;4.14875e-72;1.0
178.4181;24.2525;3.65307e-70;1.0
183.813;24.5025;3.02639e-68;1.0
189.235;24.7525;2.40743e-66;1.0
194.669;25.0025;1.81592e-64;1.0
200.1089;25.2525;1.2928e-62;1.0
205.551;25.5025;8.65685e-61;1.0
210.995;25.7525;5.44512e-59;1.0
216.435;26.0025;3.20825e-57;1.0
221.884;26.2525;1.78705e-55;1.0
227.326;26.5025;9.29399e-54;1.0
232.769;26.7525;4.53918e-52;1.0
238.208;27.0025;2.07645e-50;1.0
243.645;27.2525;8.91177e-49;1.0
249.081;27.5025;3.58685e-47;1.0
254.513;27.7525;1.35201e-45;1.0
259.938;28.0025;4.76321e-44;1.0
265.359;28.2525;1.57218e-42;1.0
270.777;28.5025;4.86678e-41;1.0
276.19;28.7525;1.41076e-39;1.0
281.589;29.0025;3.81011e-38;1.0
286.9809;29.2525;9.62733e-37;1.0
292.374;29.5025;2.28869e-35;1.0
297.754;29.7525;5.07478e-34;1.0
303.122;30.0025;1.05102e-32;1.0
308.487;30.2525;2.04377e-31;1.0
313.8459;30.5025;3.72677e-30;1.0
319.199;30.7525;6.37114e-29;1.0
324.539;31.0025;1.01804e-27;1.0
329.881;31.2525;1.53211e-26;1.0
335.21;31.5025;2.15593e-25;1.0
340.529;31.7525;2.84285e-24;1.0
345.84;32.0025;3.51559e-23;1.0
351.143;32.2525;4.07908e-22;1.0
356.438;32.5025;4.44359e-21;1.0
361.728;32.7525;4.54874e-20;1.0
367.0099;33.0025;4.37147e-19;1.0
372.279;33.2525;3.93776e-18;1.0
377.548;33.5025;3.34415e-17;1.0
382.81;33.7525;2.66969e-16;1.0
388.065;34.0025;2.00398e-15;1.0
393.315;34.2525;1.41571e-14;1.0
398.549;34.5025;9.37571e-14;1.0
403.789;34.7525;5.87011e-13;1.0
409.015;35.0025;3.44983e-12;1.0
414.236;35.2525;1.91018e-11;1.0
419.451;35.5025;9.963e-11;1.0
424.66;35.7525;4.8939e-10;1.0
429.864;36.0025;2.26552e-09;1.0
435.062;36.2525;9.88713e-09;1.0
440.256;36.5025;4.06804e-08;1.0
445.444;36.7525;1.57819e-07;1.0
450.626;37.0025;5.77201e-07;1.0
455.799;37.2525;1.9899e-06;1.0
460.966;37.5025;6.47074e-06;1.0
466.133;37.7525;1.98751e-05;1.0
471.29;38.0025;5.75703e-05;1.0
476.442;38.2525;0.000157438;1.0
481.587;38.5025;0.000406315;1.0
486.731;38.7525;0.000990928;1.0
491.871;39.0025;0.00228288;1.0
497.004;39.2525;0.00496707;1.0
502.138;39.5025;0.010218;1.0
507.262;39.7525;0.0198477;1.0
512.391;40.0025;0.036477;1.0
517.514;40.2525;0.0633515;1.0
522.643;40.5025;0.1041;1.0
527.765;40.7525;0.161644;1.0
532.896;41.0025;0.237509;1.0
538.037;41.2525;0.330137;1.0
543.189;41.5025;0.43401;1.0
548.349;41.7525;0.539354;1.0
553.515;42.0025;0.633422;1.0
558.684;42.2525;0.702837;1.0
563.854;42.5025;0.736718;1.0
569.049;42.7525;0.729366;1.0
574.26;43.0025;0.681555;1.0
579.422;43.2525;0.601973;1.0
584.76;43.5025;0.498743;1.0
590.127;43.7525;0.38832;1.0
595.457;44.0025;0.28502;1.0
600.648;44.2525;0.198977;1.0
605.784;44.5025;0.131784;1.0
610.83;44.7525;0.0832321;1.0
615.742;45.0025;0.0505113;1.0
620.639;45.2525;0.0291717;1.0
625.545;45.5025;0.0159886;1.0
630.459;45.7525;0.00831689;1.0
635.38;46.0025;0.00410482;1.0
640.308;46.2525;0.00192212;1.0
645.26;46.5025;0.000851101;1.0
650.236;46.7525;0.000356209;1.0
655.221;47.0025;0.000141171;1.0
660.22;47.2525;5.29159e-05;1.0
665.225;47.5025;1.87811e-05;1.0
670.231;47.7525;6.31832e-06;1.0
675.241;48.0025;2.01346e-06;1.0
680.257;48.2525;6.07267e-07;1.0
685.271;48.5025;1.73671e-07;1.0
690.28;48.7525;4.71556e-08;1.0
695.2828;49.0025;1.21551e-08;1.0
700.282;49.2525;2.97365e-09;1.0
705.281;49.5025;6.89833e-10;1.0
710.284;49.7525;1.51569e-10;1.0
715.28;50.0025;3.16475e-11;1.0
720.278;50.2525;6.25937e-12;1.0
725.282;50.5025;1.17188e-12;1.0
730.282;50.7525;2.08285e-13;1.0
735.28;51.0025;3.51233e-14;1.0
740.272;51.2525;5.62672e-15;1.0
745.26;51.5025;8.5641e-16;1.0
750.243;51.7525;1.23851e-16;1.0
755.23;52.0025;1.69636e-17;1.0
760.233;52.2525;2.18883e-18;1.0
765.25;52.5025;2.66183e-19;1.0
770.278;52.7525;3.05365e-20;1.0
775.306;53.0025;3.31883e-21;1.0
780.335;53.2525;3.41692e-22;1.0
785.353;53.5025;3.35148e-23;1.0
790.365;53.7525;3.12279e-24;1.0
795.363;54.0025;2.77889e-25;1.0
800.355;54.2525;2.35031e-26;1.0
805.337;54.5025;1.89563e-27;1.0
810.311;54.7525;1.45626e-28;1.0
815.273;55.0025;1.06776e-29;1.0
820.233;55.2525;7.43792e-31;1.0
825.19;55.5025;4.92446e-32;1.0
830.147;55.7525;3.09454e-33;1.0
835.104;56.0025;1.84612e-34;1.0
840.066;56.2525;1.0419e-35;1.0
845.0319;56.5025;5.56487e-37;1.0
849.994;56.7525;2.82737e-38;1.0
854.957;57.0025;1.3625e-39;1.0
859.918;57.2525;6.23548e-41;1.0
864.877;57.5025;2.71279e-42;1.0
869.837;57.7525;1.11917e-43;1.0
874.792;58.0025;4.39608e-45;1.0
879.749;58.2525;1.63648e-46;1.0
884.703;58.5025;5.79312e-48;1.0
889.657;58.7525;1.94576e-49;1.0
894.614;59.0025;6.19187e-51;1.0

File: peak_2.txt
#EXPORTTYPE:DATA SINGLE
#FTYPE:ANSI
#IDENTITY:005924
#DECIMAL:POINT
#SEPARATOR:SEMICOLON
#MTYPE:DSC
#PROJECT:
#DATE/TIME:22.07.2025 13:59
#CORR. FILE:005923_bline_Al2O3_900_20_N2_20_air_20.ngb-bs1
#TEMPCAL:TCALZERO.TCX
#SENSITIVITY:SENSZERO.EXX
#LABORATORY:13
#REMARK:
#SAMPLE:3
#SAMPLE MASS /mg:11.02
#REFERENCE:
#REFERENCE MASS /mg:0
#TYPE OF CRUCIBLE:DSC/TG pan Al2O3
#SAMPLE CRUCIBLE MASS /mg:0
#REFERENCE CRUCIBLE MASS /mg:0
#DSC RANGE /�V:5000
#TG RANGE /mg:5000
#TAU-R:---
#CORR. CODE:020
#EXO:+1
#RANGE:35�C/00:00/35�C/20,0(K/min)/920�C/
#SEGMENT:S2/2
#SEG. 1:35�C/00:15/35�C
#SEG. 2:35�C/20,0(K/min)/920�C

##Temp./�C;Time/min;DSC/(uV/mg);Sensit./(uV/mW)
34.12771;15.2525;1.20035e-88;1.0
34.24319;15.5025;1.29665e-88;1.0
34.64471;15.7525;1.69552e-88;1.0
35.4829;16.0025;2.9663e-88;1.0
36.80038;16.2525;7.13421e-88;1.0
38.58895;16.5025;2.34114e-87;1.0
40.80919;16.7525;1.01843e-86;1.0
43.38457;17.0025;5.56689e-86;1.0
46.28457;17.2525;3.73656e-85;1.0
49.45557;17.5025;2.96475e-84;1.0
52.86838;17.7525;2.72093e-83;1.0
56.49052;18.0025;2.82093e-82;1.0
60.29871;18.2525;3.24683e-81;1.0
64.26776;18.5025;4.07337e-80;1.0
68.38686;18.7525;5.52073e-79;1.0
72.62505;19.0025;7.91197e-78;1.0
76.97686;19.2525;1.19294e-76;1.0
81.44562;19.5025;1.8931e-75;1.0
86.04281;19.7525;3.17872e-74;1.0
90.75519;20.0025;5.59137e-73;1.0
95.54043;20.2525;1.00266e-71;1.0
100.409;20.5025;1.84177e-70;1.0
105.338;20.7525;3.41649e-69;1.0
110.304;21.0025;6.30574e-68;1.0
115.315;21.2525;1.16223e-66;1.0
120.365;21.5025;2.13067e-65;1.0
125.466;21.7525;3.9096e-64;1.0
130.616;22.0025;7.16597e-63;1.0
135.815;22.2525;1.31105e-61;1.0
141.059;22.5025;2.38528e-60;1.0
146.342;22.7525;4.30199e-59;1.0
151.657;23.0025;7.6527e-58;1.0
156.988;23.2525;1.33123e-56;1.0
162.33;23.5025;2.25675e-55;1.0
167.6811;23.7525;3.72621e-54;1.0
173.024;24.0025;5.9353e-53;1.0
178.4181;24.2525;9.40066e-52;1.0
183.813;24.5025;1.4428e-50;1.0
189.235;24.7525;2.17304e-49;1.0
194.669;25.0025;3.18713e-48;1.0
200.1089;25.2525;4.53899e-47;1.0
205.551;25.5025;6.26354e-46;1.0
210.995;25.7525;8.36809e-45;1.0
216.435;26.0025;1.08049e-43;1.0
221.884;26.2525;1.35617e-42;1.0
227.326;26.5025;1.64175e-41;1.0
232.769;26.7525;1.92387e-40;1.0
238.208;27.0025;2.1787e-39;1.0
243.645;27.2525;2.38686e-38;1.0
249.081;27.5025;2.52898e-37;1.0
254.513;27.7525;2.58922e-36;1.0
259.938;28.0025;2.55818e-35;1.0
265.359;28.2525;2.44279e-34;1.0
270.777;28.5025;2.25589e-33;1.0
276.19;28.7525;2.01276e-32;1.0
281.589;29.0025;1.72925e-31;1.0
286.9809;29.2525;1.43442e-30;1.0
292.374;29.5025;1.153e-29;1.0
297.754;29.7525;8.92965e-29;1.0
303.122;30.0025;6.66909e-28;1.0
308.487;30.2525;4.81962e-27;1.0
313.8459;30.5025;3.36743e-26;1.0
319.199;30.7525;2.2743e-25;1.0
324.539;31.0025;1.48165e-24;1.0
329.881;31.2525;9.35889e-24;1.0
335.21;31.5025;5.70324e-23;1.0
340.529;31.7525;3.35785e-22;1.0
345.84;32.0025;1.91102e-21;1.0
351.143;32.2525;1.05159e-20;1.0
356.438;32.5025;5.59736e-20;1.0
361.728;32.7525;2.88353e-19;1.0
367.0099;33.0025;1.4367e-18;1.0
372.279;33.2525;6.91481e-18;1.0
377.548;33.5025;3.22822e-17;1.0
382.81;33.7525;1.45876e-16;1.0
388.065;34.0025;6.38124e-16;1.0
393.315;34.2525;2.70395e-15;1.0
398.549;34.5025;1.10655e-14;1.0
403.789;34.7525;4.40087e-14;1.0
409.015;35.0025;1.69181e-13;1.0
414.236;35.2525;6.30379e-13;1.0
419.451;35.5025;2.2762e-12;1.0
424.66;35.7525;7.9631e-12;1.0
429.864;36.0025;2.7004e-11;1.0
435.062;36.2525;8.87851e-11;1.0
440.256;36.5025;2.8302e-10;1.0
445.444;36.7525;8.74735e-10;1.0
450.626;37.0025;2.6208e-09;1.0
455.799;37.2525;7.6104e-09;1.0
460.966;37.5025;2.1429e-08;1.0
466.133;37.7525;5.85789e-08;1.0
471.29;38.0025;1.55228e-07;1.0
476.442;38.2525;3.99114e-07;1.0
481.587;38.5025;9.95218e-07;1.0
486.731;38.7525;2.40971e-06;1.0
491.871;39.0025;5.66315e-06;1.0
497.004;39.2525;1.29144e-05;1.0
502.138;39.5025;2.86081e-05;1.0
507.262;39.7525;6.14665e-05;1.0
512.391;40.0025;0.000128386;1.0
517.514;40.2525;0.000260299;1.0
522.643;40.5025;0.000513077;1.0
527.765;40.7525;0.000981534;1.0
532.896;41.0025;0.00182612;1.0
538.037;41.2525;0.00330378;1.0
543.189;41.5025;0.00581243;1.0
548.349;41.7525;0.00993845;1.0
553.515;42.0025;0.0165113;1.0
558.684;42.2525;0.0266439;1.0
563.854;42.5025;0.0417487;1.0
569.049;42.7525;0.0636382;1.0
574.26;43.0025;0.0942702;1.0
579.422;43.2525;0.13508;1.0
584.76;43.5025;0.189996;1.0
590.127;43.7525;0.259358;1.0
595.457;44.0025;0.342362;1.0
600.648;44.2525;0.43536;1.0
605.784;44.5025;0.536287;1.0
610.83;44.7525;0.639817;1.0
615.742;45.0025;0.739546;1.0
620.639;45.2525;0.832089;1.0
625.545;45.5025;0.91192;1.0
630.459;45.7525;0.973293;1.0
635.38;46.0025;1.01153;1.0
640.308;46.2525;1.02356;1.0
645.26;46.5025;1.00821;1.0
650.236;46.7525;0.96634;1.0
655.221;47.0025;0.901113;1.0
660.22;47.2525;0.817316;1.0
665.225;47.5025;0.721029;1.0
670.231;47.7525;0.61873;1.0
675.241;48.0025;0.516398;1.0
680.257;48.2525;0.419101;1.0
685.271;48.5025;0.330854;1.0
690.28;48.7525;0.25413;1.0
695.2828;49.0025;0.189931;1.0
700.282;49.2525;0.138118;1.0
705.281;49.5025;0.0977105;1.0
710.284;49.7525;0.0672265;1.0
715.28;50.0025;0.0450209;1.0
720.278;50.2525;0.0293231;1.0
725.282;50.5025;0.0185709;1.0
730.282;50.7525;0.0114454;1.0
735.28;51.0025;0.00686327;1.0
740.272;51.2525;0.00400602;1.0
745.26;51.5025;0.00227615;1.0
750.243;51.7525;0.00125898;1.0
755.23;52.0025;0.000677241;1.0
760.233;52.2525;0.000353686;1.0
765.25;52.5025;0.000179336;1.0
770.278;52.7525;8.83042e-05;1.0
775.306;53.0025;4.2282e-05;1.0
780.335;53.2525;1.96867e-05;1.0
785.353;53.5025;8.93052e-06;1.0
790.365;53.7525;3.94334e-06;1.0
795.363;54.0025;1.69807e-06;1.0
800.355;54.2525;7.11943e-07;1.0
805.337;54.5025;2.90979e-07;1.0
810.311;54.7525;1.15889e-07;1.0
815.273;55.0025;4.50119e-08;1.0
820.233;55.2525;1.70218e-08;1.0
825.19;55.5025;6.26833e-09;1.0
830.147;55.7525;2.24671e-09;1.0
835.104;56.0025;7.83842e-10;1.0
840.066;56.2525;2.65841e-10;1.0
845.0319;56.5025;8.76553e-11;1.0
849.994;56.7525;2.81542e-11;1.0
854.957;57.0025;8.79906e-12;1.0
859.918;57.2525;2.67713e-12;1.0
864.877;57.5025;7.93256e-13;1.0
869.837;57.7525;2.28692e-13;1.0
874.792;58.0025;6.42498e-14;1.0
879.749;58.2525;1.75585e-14;1.0
884.703;58.5025;4.67392e-15;1.0
889.657;58.7525;1.21079e-15;1.0
894.614;59.0025;3.05071e-16;1.0

File: peak_3.txt
#EXPORTTYPE:DATA SINGLE
#FTYPE:ANSI
#IDENTITY:005924
#DECIMAL:POINT
#SEPARATOR:SEMICOLON
#MTYPE:DSC
#PROJECT:
#DATE/TIME:22.07.2025 13:59
#CORR. FILE:005923_bline_Al2O3_900_20_N2_20_air_20.ngb-bs1
#TEMPCAL:TCALZERO.TCX
#SENSITIVITY:SENSZERO.EXX
#LABORATORY:13
#REMARK:
#SAMPLE:3
#SAMPLE MASS /mg:11.02
#REFERENCE:
#REFERENCE MASS /mg:0
#TYPE OF CRUCIBLE:DSC/TG pan Al2O3
#SAMPLE CRUCIBLE MASS /mg:0
#REFERENCE CRUCIBLE MASS /mg:0
#DSC RANGE /�V:5000
#TG RANGE /mg:5000
#TAU-R:---
#CORR. CODE:020
#EXO:+1
#RANGE:35�C/00:00/35�C/20,0(K/min)/920�C/
#SEGMENT:S2/2
#SEG. 1:35�C/00:15/35�C
#SEG. 2:35�C/20,0(K/min)/920�C

##Temp./�C;Time/min;DSC/(uV/mg);Sensit./(uV/mW)
34.12771;15.2525;1.90412e-43;1.0
34.24319;15.5025;1.96676e-43;1.0
34.64471;15.7525;2.20094e-43;1.0
35.4829;16.0025;2.78298e-43;1.0
36.80038;16.2525;4.02195e-43;1.0
38.58895;16.5025;6.62322e-43;1.0
40.80919;16.7525;1.22806e-42;1.0
43.38457;17.0025;2.50727e-42;1.0
46.28457;17.2525;5.58324e-42;1.0
49.45557;17.5025;1.33477e-41;1.0
52.86838;17.7525;3.39514e-41;1.0
56.49052;18.0025;9.09881e-41;1.0
60.29871;18.2525;2.55075e-40;1.0
64.26776;18.5025;7.42341e-40;1.0
68.38686;18.7525;2.23466e-39;1.0
72.62505;19.0025;6.8962e-39;1.0
76.97686;19.2525;2.17726e-38;1.0
81.44562;19.5025;7.03456e-38;1.0
86.04281;19.7525;2.33139e-37;1.0
90.75519;20.0025;7.89324e-37;1.0
95.54043;20.2525;2.69882e-36;1.0
100.409;20.5025;9.33884e-36;1.0
105.338;20.7525;3.25093e-35;1.0
110.304;21.0025;1.13132e-34;1.0
115.315;21.2525;3.94207e-34;1.0
120.365;21.5025;1.37312e-33;1.0
125.466;21.7525;4.79427e-33;1.0
130.616;22.0025;1.67658e-32;1.0
135.815;22.2525;5.87084e-32;1.0
141.059;22.5025;2.0553e-31;1.0
146.342;22.7525;7.18421e-31;1.0
151.657;23.0025;2.50198e-30;1.0
156.988;23.2525;8.64947e-30;1.0
162.33;23.5025;2.96382e-29;1.0
167.6811;23.7525;1.0064e-28;1.0
173.024;24.0025;3.37239e-28;1.0
178.4181;24.2525;1.13007e-27;1.0
183.813;24.5025;3.7444e-27;1.0
189.235;24.7525;1.23363e-26;1.0
194.669;25.0025;4.02767e-26;1.0
200.1089;25.2525;1.30151e-25;1.0
205.551;25.5025;4.1587e-25;1.0
210.995;25.7525;1.3135e-24;1.0
216.435;26.0025;4.09759e-24;1.0
221.884;26.2525;1.26582e-23;1.0
227.326;26.5025;3.85871e-23;1.0
232.769;26.7525;1.16264e-22;1.0
238.208;27.0025;3.4598e-22;1.0
243.645;27.2525;1.01735e-21;1.0
249.081;27.5025;2.95556e-21;1.0
254.513;27.7525;8.47986e-21;1.0
259.938;28.0025;2.40135e-20;1.0
265.359;28.2525;6.71636e-20;1.0
270.777;28.5025;1.85588e-19;1.0
276.19;28.7525;5.0641e-19;1.0
281.589;29.0025;1.36244e-18;1.0
286.9809;29.2525;3.61846e-18;1.0
292.374;29.5025;9.50272e-18;1.0
297.754;29.7525;2.46112e-17;1.0
303.122;30.0025;6.28848e-17;1.0
308.487;30.2525;1.58771e-16;1.0
313.8459;30.5025;3.95944e-16;1.0
319.199;30.7525;9.7519e-16;1.0
324.539;31.0025;2.36974e-15;1.0
329.881;31.2525;5.69531e-15;1.0
335.21;31.5025;1.35054e-14;1.0
340.529;31.7525;3.16199e-14;1.0
345.84;32.0025;7.31092e-14;1.0
351.143;32.2525;1.66951e-13;1.0
356.438;32.5025;3.7661e-13;1.0
361.728;32.7525;8.3945e-13;1.0
367.0099;33.0025;1.84817e-12;1.0
372.279;33.2525;4.01665e-12;1.0
377.548;33.5025;8.63458e-12;1.0
382.81;33.7525;1.83403e-11;1.0
388.065;34.0025;3.84936e-11;1.0
393.315;34.2525;7.98569e-11;1.0
398.549;34.5025;1.63499e-10;1.0
403.789;34.7525;3.31414e-10;1.0
409.015;35.0025;6.63242e-10;1.0
414.236;35.2525;1.31227e-09;1.0
419.451;35.5025;2.56672e-09;1.0
424.66;35.7525;4.96224e-09;1.0
429.864;36.0025;9.48473e-09;1.0
435.062;36.2525;1.79252e-08;1.0
440.256;36.5025;3.34956e-08;1.0
445.444;36.7525;6.18866e-08;1.0
450.626;37.0025;1.13042e-07;1.0
455.799;37.2525;2.04106e-07;1.0
460.966;37.5025;3.64381e-07;1.0
466.133;37.7525;6.43607e-07;1.0
471.29;38.0025;1.12377e-06;1.0
476.442;38.2525;1.94063e-06;1.0
481.587;38.5025;3.31356e-06;1.0
486.731;38.7525;5.59802e-06;1.0
491.871;39.0025;9.35516e-06;1.0
497.004;39.2525;1.54619e-05;1.0
502.138;39.5025;2.52902e-05;1.0
507.262;39.7525;4.08978e-05;1.0
512.391;40.0025;6.54826e-05;1.0
517.514;40.2525;0.000103708;1.0
522.643;40.5025;0.000162631;1.0
527.765;40.7525;0.000252234;1.0
532.896;41.0025;0.00038745;1.0
538.037;41.2525;0.000589431;1.0
543.189;41.5025;0.000888153;1.0
548.349;41.7525;0.00132503;1.0
553.515;42.0025;0.00195694;1.0
558.684;42.2525;0.00286055;1.0
563.854;42.5025;0.00413758;1.0
569.049;42.7525;0.00593159;1.0
574.26;43.0025;0.00842202;1.0
579.422;43.2525;0.0117926;1.0
584.76;43.5025;0.0165197;1.0
590.127;43.7525;0.0229195;1.0
595.457;44.0025;0.0313715;1.0
600.648;44.2525;0.0421325;1.0
605.784;44.5025;0.0558177;1.0
610.83;44.7525;0.0728396;1.0
615.742;45.0025;0.0934737;1.0
620.639;45.2525;0.118723;1.0
625.545;45.5025;0.149434;1.0
630.459;45.7525;0.186362;1.0
635.38;46.0025;0.230275;1.0
640.308;46.2525;0.281891;1.0
645.26;46.5025;0.342094;1.0
650.236;46.7525;0.411478;1.0
655.221;47.0025;0.490262;1.0
660.22;47.2525;0.578665;1.0
665.225;47.5025;0.67641;1.0
670.231;47.7525;0.782873;1.0
675.241;48.0025;0.897221;1.0
680.257;48.2525;1.01826;1.0
685.271;48.5025;1.14411;1.0
690.28;48.7525;1.27261;1.0
695.2828;49.0025;1.40141;1.0
700.282;49.2525;1.52792;1.0
705.281;49.5025;1.64942;1.0
710.284;49.7525;1.76311;1.0
715.28;50.0025;1.8659;1.0
720.278;50.2525;1.9553;1.0
725.282;50.5025;2.02886;1.0
730.282;50.7525;2.08436;1.0
735.28;51.0025;2.12026;1.0
740.272;51.2525;2.13554;1.0
745.26;51.5025;2.12979;1.0
750.243;51.7525;2.10325;1.0
755.23;52.0025;2.05666;1.0
760.233;52.2525;1.99114;1.0
765.25;52.5025;1.90842;1.0
770.278;52.7525;1.81077;1.0
775.306;53.0025;1.70097;1.0
780.335;53.2525;1.58188;1.0
785.353;53.5025;1.45675;1.0
790.365;53.7525;1.32832;1.0
795.363;54.0025;1.19961;1.0
800.355;54.2525;1.07282;1.0
805.337;54.5025;0.950261;1.0
810.311;54.7525;0.833648;1.0
815.273;55.0025;0.724452;1.0
820.233;55.2525;0.623487;1.0
825.19;55.5025;0.531438;1.0
830.147;55.7525;0.448592;1.0
835.104;56.0025;0.375;1.0
840.066;56.2525;0.310377;1.0
845.0319;56.5025;0.25435;1.0
849.994;56.7525;0.206446;1.0
854.957;57.0025;0.165931;1.0
859.918;57.2525;0.13208;1.0
864.877;57.5025;0.104129;1.0
869.837;57.7525;0.0812919;1.0
874.792;58.0025;0.0628643;1.0
879.749;58.2525;0.0481377;1.0
884.703;58.5025;0.0365099;1.0
889.657;58.7525;0.0274221;1.0
894.614;59.0025;0.020394;1.0

File: peak_4.txt
#EXPORTTYPE:DATA SINGLE
#FTYPE:ANSI
#IDENTITY:005924
#DECIMAL:POINT
#SEPARATOR:SEMICOLON
#MTYPE:DSC
#PROJECT:
#DATE/TIME:22.07.2025 13:59
#CORR. FILE:005923_bline_Al2O3_900_20_N2_20_air_20.ngb-bs1
#TEMPCAL:TCALZERO.TCX
#SENSITIVITY:SENSZERO.EXX
#LABORATORY:13
#REMARK:
#SAMPLE:3
#SAMPLE MASS /mg:11.02
#REFERENCE:
#REFERENCE MASS /mg:0
#TYPE OF CRUCIBLE:DSC/TG pan Al2O3
#SAMPLE CRUCIBLE MASS /mg:0
#REFERENCE CRUCIBLE MASS /mg:0
#DSC RANGE /�V:5000
#TG RANGE /mg:5000
#TAU-R:---
#CORR. CODE:020
#EXO:+1
#RANGE:35�C/00:00/35�C/20,0(K/min)/920�C/
#SEGMENT:S2/2
#SEG. 1:35�C/00:15/35�C
#SEG. 2:35�C/20,0(K/min)/920�C

##Temp./�C;Time/min;DSC/(uV/mg);Sensit./(uV/mW)
34.12771;15.2525;2.89122e-42;1.0
34.24319;15.5025;2.97019e-42;1.0
34.64471;15.7525;3.26183e-42;1.0
35.4829;16.0025;3.96563e-42;1.0
36.80038;16.2525;5.38899e-42;1.0
38.58895;16.5025;8.16555e-42;1.0
40.80919;16.7525;1.36607e-41;1.0
43.38457;17.0025;2.47711e-41;1.0
46.28457;17.2525;4.83078e-41;1.0
49.45557;17.5025;1.00002e-40;1.0
52.86838;17.7525;2.18126e-40;1.0
56.49052;18.0025;4.97288e-40;1.0
60.29871;18.2525;1.178e-39;1.0
64.26776;18.5025;2.88136e-39;1.0
68.38686;18.7525;7.25571e-39;1.0
72.62505;19.0025;1.86711e-38;1.0
76.97686;19.2525;4.90183e-38;1.0
81.44562;19.5025;1.31334e-37;1.0
86.04281;19.7525;3.59853e-37;1.0
90.75519;20.0025;1.00492e-36;1.0
95.54043;20.2525;2.8329e-36;1.0
100.409;20.5025;8.07646e-36;1.0
105.338;20.7525;2.31701e-35;1.0
110.304;21.0025;6.65361e-35;1.0
115.315;21.2525;1.91521e-34;1.0
120.365;21.5025;5.51835e-34;1.0
125.466;21.7525;1.59536e-33;1.0
130.616;22.0025;4.62479e-33;1.0
135.815;22.2525;1.34408e-32;1.0
141.059;22.5025;3.91116e-32;1.0
146.342;22.7525;1.13831e-31;1.0
151.657;23.0025;3.30759e-31;1.0
156.988;23.2525;9.56529e-31;1.0
162.33;23.5025;2.74964e-30;1.0
167.6811;23.7525;7.85531e-30;1.0
173.024;24.0025;2.22231e-29;1.0
178.4181;24.2525;6.29734e-29;1.0
183.813;24.5025;1.77019e-28;1.0
189.235;24.7525;4.95999e-28;1.0
194.669;25.0025;1.3813e-27;1.0
200.1089;25.2525;3.81923e-27;1.0
205.551;25.5025;1.04759e-26;1.0
210.995;25.7525;2.84975e-26;1.0
216.435;26.0025;7.68282e-26;1.0
221.884;26.2525;2.05738e-25;1.0
227.326;26.5025;5.45585e-25;1.0
232.769;26.7525;1.43476e-24;1.0
238.208;27.0025;3.7392e-24;1.0
243.645;27.2525;9.66136e-24;1.0
249.081;27.5025;2.47462e-23;1.0
254.513;27.7525;6.28106e-23;1.0
259.938;28.0025;1.57899e-22;1.0
265.359;28.2525;3.93374e-22;1.0
270.777;28.5025;9.71451e-22;1.0
276.19;28.7525;2.37708e-21;1.0
281.589;29.0025;5.75536e-21;1.0
286.9809;29.2525;1.38029e-20;1.0
292.374;29.5025;3.28388e-20;1.0
297.754;29.7525;7.73186e-20;1.0
303.122;30.0025;1.80219e-19;1.0
308.487;30.2525;4.16444e-19;1.0
313.8459;30.5025;9.53641e-19;1.0
319.199;30.7525;2.16394e-18;1.0
324.539;31.0025;4.86111e-18;1.0
329.881;31.2525;1.08345e-17;1.0
335.21;31.5025;2.39067e-17;1.0
340.529;31.7525;5.22547e-17;1.0
345.84;32.0025;1.13165e-16;1.0
351.143;32.2525;2.42836e-16;1.0
356.438;32.5025;5.1642e-16;1.0
361.728;32.7525;1.08864e-15;1.0
367.0099;33.0025;2.27407e-15;1.0
372.279;33.2525;4.70443e-15;1.0
377.548;33.5025;9.65637e-15;1.0
382.81;33.7525;1.96465e-14;1.0
388.065;34.0025;3.96223e-14;1.0
393.315;34.2525;7.92311e-14;1.0
398.549;34.5025;1.56861e-13;1.0
403.789;34.7525;3.08393e-13;1.0
409.015;35.0025;6.00494e-13;1.0
414.236;35.2525;1.15957e-12;1.0
419.451;35.5025;2.22037e-12;1.0
424.66;35.7525;4.21533e-12;1.0
429.864;36.0025;7.93617e-12;1.0
435.062;36.2525;1.48185e-11;1.0
440.256;36.5025;2.74409e-11;1.0
445.444;36.7525;5.03957e-11;1.0
450.626;37.0025;9.17764e-11;1.0
455.799;37.2525;1.65711e-10;1.0
460.966;37.5025;2.96722e-10;1.0
466.133;37.7525;5.27248e-10;1.0
471.29;38.0025;9.28881e-10;1.0
476.442;38.2525;1.62332e-09;1.0
481.587;38.5025;2.81331e-09;1.0
486.731;38.7525;4.8384e-09;1.0
491.871;39.0025;8.2555e-09;1.0
497.004;39.2525;1.39718e-08;1.0
502.138;39.5025;2.34704e-08;1.0
507.262;39.7525;3.90934e-08;1.0
512.391;40.0025;6.46632e-08;1.0
517.514;40.2525;1.06105e-07;1.0
522.643;40.5025;1.72906e-07;1.0
527.765;40.7525;2.7948e-07;1.0
532.896;41.0025;4.48761e-07;1.0
538.037;41.2525;7.15823e-07;1.0
543.189;41.5025;1.13441e-06;1.0
548.349;41.7525;1.78542e-06;1.0
553.515;42.0025;2.7903e-06;1.0
558.684;42.2525;4.32912e-06;1.0
563.854;42.5025;6.66618e-06;1.0
569.049;42.7525;1.02075e-05;1.0
574.26;43.0025;1.55307e-05;1.0
579.422;43.2525;2.33578e-05;1.0
584.76;43.5025;3.53426e-05;1.0
590.127;43.7525;5.3155e-05;1.0
595.457;44.0025;7.90804e-05;1.0
600.648;44.2525;0.000115539;1.0
605.784;44.5025;0.000166865;1.0
610.83;44.7525;0.000237703;1.0
615.742;45.0025;0.000333129;1.0
620.639;45.2525;0.00046319;1.0
625.545;45.5025;0.000640067;1.0
630.459;45.7525;0.000878858;1.0
635.38;46.0025;0.00119904;1.0
640.308;46.2525;0.00162529;1.0
645.26;46.5025;0.00219114;1.0
650.236;46.7525;0.00293738;1.0
655.221;47.0025;0.00391226;1.0
660.22;47.2525;0.005178;1.0
665.225;47.5025;0.00680709;1.0
670.231;47.7525;0.00888562;1.0
675.241;48.0025;0.0115186;1.0
680.257;48.2525;0.0148303;1.0
685.271;48.5025;0.0189567;1.0
690.28;48.7525;0.0240515;1.0
695.2828;49.0025;0.0302918;1.0
700.282;49.2525;0.0378744;1.0
705.281;49.5025;0.0470192;1.0
710.284;49.7525;0.0579671;1.0
715.28;50.0025;0.0709369;1.0
720.278;50.2525;0.0862055;1.0
725.282;50.5025;0.104038;1.0
730.282;50.7525;0.124652;1.0
735.28;51.0025;0.148284;1.0
740.272;51.2525;0.175118;1.0
745.26;51.5025;0.205317;1.0
750.243;51.7525;0.238993;1.0
755.23;52.0025;0.276263;1.0
760.233;52.2525;0.317235;1.0
765.25;52.5025;0.361829;1.0
770.278;52.7525;0.409855;1.0
775.306;53.0025;0.460937;1.0
780.335;53.2525;0.51468;1.0
785.353;53.5025;0.570441;1.0
790.365;53.7525;0.62768;1.0
795.363;54.0025;0.685568;1.0
800.355;54.2525;0.743443;1.0
805.337;54.5025;0.800387;1.0
810.311;54.7525;0.855548;1.0
815.273;55.0025;0.907985;1.0
820.233;55.2525;0.956892;1.0
825.19;55.5025;1.00138;1.0
830.147;55.7525;1.04064;1.0
835.104;56.0025;1.07391;1.0
840.066;56.2525;1.10055;1.0
845.0319;56.5025;1.12;1.0
849.994;56.7525;1.13182;1.0
854.957;57.0025;1.13579;1.0
859.918;57.2525;1.13183;1.0
864.877;57.5025;1.12002;1.0
869.837;57.7525;1.10061;1.0
874.792;58.0025;1.07402;1.0
879.749;58.2525;1.04078;1.0
884.703;58.5025;1.00156;1.0
889.657;58.7525;0.957121;1.0
894.614;59.0025;0.908267;1.0