Folder: PeaksSeparation.jl/src/data/kinetics/q5 (part 2)

File: peak_3.txt
#EXPORTTYPE:DATA SINGLE
#FILE:00592013__Al2O3_900_5_N2_20_air_20.ngb-ds1
#FTYPE:ANSI
#IDENTITY:005920
#DECIMAL:POINT
#SEPARATOR:SEMICOLON
#MTYPE:DSC
#PROJECT:
#DATE/TIME:21.07.2025 08:33
#CORR. FILE:005919_bline_Al2O3_900_5_N2_20_air_20.ngb-bs1
#TEMPCAL:TCALZERO.TCX
#SENSITIVITY:SENSZERO.EXX
#LABORATORY: 11
#OPERATOR:
#REMARK:
#SAMPLE:1
#SAMPLE MASS /mg:9.99
#MATERIAL:
#REFERENCE:
#REFERENCE MASS /mg:0
#TYPE OF CRUCIBLE:DSC/TG pan Al2O3
#SAMPLE CRUCIBLE MASS /mg:0
#REFERENCE CRUCIBLE MASS /mg:0
#DSC RANGE /V:5000
#TG RANGE /mg:5000
#TAU-R:---
#CORR. CODE:020
#EXO:+1
#RANGE:35C/00:00/35C/5,0(K/min)/920C/
#SEGMENT:S1-2/2
#SEG. 1:35C/00:15/35C
#SEG. 2:35C/5,0(K/min)/920C

##Temp./C;Time/min;DSC/(uV/mg);Sensit./(uV/mW);Segment
34.17636;0.25;6.08091e-68;1.0;1
34.17688;1.0;6.08264e-68;1.0;1
34.16876;1.75;6.05567e-68;1.0;1
34.16576;2.5;6.04574e-68;1.0;1
34.16288;3.25;6.03622e-68;1.0;1
34.16165;4.0;6.03216e-68;1.0;1
34.16759;4.75;6.0518e-68;1.0;1
34.15641;5.5;6.01488e-68;1.0;1
34.15641;6.25;6.01488e-68;1.0;1
34.15471;7.0;6.00929e-68;1.0;1
34.15988;7.75;6.02632e-68;1.0;1
34.15247;8.5;6.00193e-68;1.0;1
34.15082;9.25;5.99651e-68;1.0;1
34.15165;10.0;5.99924e-68;1.0;1
34.14282;10.75;5.97032e-68;1.0;1
34.13618;11.5;5.94866e-68;1.0;1
34.12518;12.25;5.91296e-68;1.0;1
34.12447;13.0;5.91066e-68;1.0;1
34.12024;13.75;5.89699e-68;1.0;1
34.10235;14.5;5.83954e-68;1.0;1
34.10516;15.25;5.84853e-68;1.0;2
34.42622;16.0;6.97165e-68;1.0;2
35.61708;16.75;1.33637e-67;1.0;2
37.54164;17.5;3.81385e-67;1.0;2
39.94421;18.25;1.40521e-66;1.0;2
42.69183;19.0;6.20142e-66;1.0;2
45.6928;19.75;3.11225e-65;1.0;2
48.88834;20.5;1.71762e-64;1.0;2
52.23305;21.25;1.01583e-63;1.0;2
55.68474;22.0;6.28761e-63;1.0;2
59.23476;22.75;4.05031e-62;1.0;2
62.86358;23.5;2.68525e-61;1.0;2
66.53528;24.25;1.79708e-60;1.0;2
70.24448;25.0;1.21015e-59;1.0;2
73.97395;25.75;8.12491e-59;1.0;2
77.71669;26.5;5.41845e-58;1.0;2
81.47146;27.25;3.58654e-57;1.0;2
85.24469;28.0;2.3635e-56;1.0;2
89.03755;28.75;1.55123e-55;1.0;2
92.84121;29.5;1.0094e-54;1.0;2
96.65528;30.25;6.51001e-54;1.0;2
100.482;31.0;4.16511e-53;1.0;2
104.318;31.75;2.63947e-52;1.0;2
108.15;32.5;1.64552e-51;1.0;2
111.973;33.25;1.00735e-50;1.0;2
115.8;34.0;6.09199e-50;1.0;2
119.615;34.75;3.61255e-49;1.0;2
123.434;35.5;2.11591e-48;1.0;2
127.259;36.25;1.22499e-47;1.0;2
131.096;37.0;7.03178e-47;1.0;2
134.935;37.75;3.98343e-46;1.0;2
138.773;38.5;2.22415e-45;1.0;2
142.619;39.25;1.22809e-44;1.0;2
146.477;40.0;6.72348e-44;1.0;2
150.3408;40.75;3.63633e-43;1.0;2
154.201;41.5;1.93607e-42;1.0;2
158.066;42.25;1.01758e-41;1.0;2
161.923;43.0;5.25756e-41;1.0;2
165.782;43.75;2.67805e-40;1.0;2
169.63;44.5;1.3393e-39;1.0;2
173.484;45.25;6.61752e-39;1.0;2
177.339;46.0;3.2249e-38;1.0;2
181.188;46.75;1.5452e-37;1.0;2
185.034;47.5;7.28988e-37;1.0;2
188.884;48.25;3.39515e-36;1.0;2
192.741;49.0;1.56339e-35;1.0;2
196.596;49.75;7.09184e-35;1.0;2
200.448;50.5;3.16649e-34;1.0;2
204.303;51.25;1.39599e-33;1.0;2
208.16;52.0;6.06812e-33;1.0;2
212.011;52.75;2.59474e-32;1.0;2
215.857;53.5;1.09174e-31;1.0;2
219.696;54.25;4.51692e-31;1.0;2
223.532;55.0;1.84041e-30;1.0;2
227.368;55.75;7.39248e-30;1.0;2
231.206;56.5;2.92947e-29;1.0;2
235.045;57.25;1.14462e-28;1.0;2
238.878;58.0;4.40093e-28;1.0;2
242.71;58.75;1.668e-27;1.0;2
246.539;59.5;6.22398e-27;1.0;2
250.374;60.25;2.29529e-26;1.0;2
254.205;61.0;8.33299e-26;1.0;2
258.036;61.75;2.98196e-25;1.0;2
261.867;62.5;1.05249e-24;1.0;2
265.7;63.25;3.66348e-24;1.0;2
269.535;64.0;1.25854e-23;1.0;2
273.359;64.75;4.24661e-23;1.0;2
277.181;65.5;1.41199e-22;1.0;2
281.006;66.25;4.63293e-22;1.0;2
284.836;67.0;1.50127e-21;1.0;2
288.666;67.75;4.79553e-21;1.0;2
292.485;68.5;1.50565e-20;1.0;2
296.307;69.25;4.66562e-20;1.0;2
300.129;70.0;1.42519e-19;1.0;2
303.947;70.75;4.28788e-19;1.0;2
307.755;71.5;1.26854e-18;1.0;2
311.568;72.25;3.70495e-18;1.0;2
315.373;73.0;1.06491e-17;1.0;2
319.1809;73.75;3.02052e-17;1.0;2
322.988;74.5;8.4461e-17;1.0;2
326.7946;75.25;2.32876e-16;1.0;2
330.599;76.0;6.328e-16;1.0;2
334.409;76.75;1.69798e-15;1.0;2
338.201;77.5;4.47186e-15;1.0;2
342.001;78.25;1.16412e-14;1.0;2
345.801;79.0;2.98771e-14;1.0;2
349.596;79.75;7.55468e-14;1.0;2
353.392;80.5;1.8837e-13;1.0;2
357.19;81.25;4.63475e-13;1.0;2
360.985;82.0;1.12401e-12;1.0;2
364.776;82.75;2.68543e-12;1.0;2
368.565;83.5;6.32386e-12;1.0;2
372.3491;84.25;1.46729e-11;1.0;2
376.134;85.0;3.3584e-11;1.0;2
379.921;85.75;7.58349e-11;1.0;2
383.7;86.5;1.68608e-10;1.0;2
387.478;87.25;3.69749e-10;1.0;2
391.254;88.0;7.99269e-10;1.0;2
395.0354;88.75;1.70582e-09;1.0;2
398.817;89.5;3.59116e-09;1.0;2
402.599;90.25;7.4564e-09;1.0;2
406.379;91.0;1.52661e-08;1.0;2
410.16;91.75;3.08298e-08;1.0;2
413.935;92.5;6.1344e-08;1.0;2
417.706;93.25;1.203e-07;1.0;2
421.478;94.0;2.32732e-07;1.0;2
425.248;94.75;4.43979e-07;1.0;2
429.019;95.5;8.35553e-07;1.0;2
432.795;96.25;1.55237e-06;1.0;2
436.573;97.0;2.84532e-06;1.0;2
440.3477;97.75;5.14104e-06;1.0;2
444.117;98.5;9.15549e-06;1.0;2
447.8979;99.25;1.61084e-05;1.0;2
451.676;100.0;2.79445e-05;1.0;2
455.4418;100.75;4.77262e-05;1.0;2
459.202;101.5;8.03438e-05;1.0;2
462.968;102.25;0.000133525;1.0;2
466.727;103.0;0.000218694;1.0;2
470.486;103.75;0.000353324;1.0;2
474.243;104.5;0.000562967;1.0;2
477.9978;105.25;0.000884592;1.0;2
481.753;106.0;0.00137127;1.0;2
485.507;106.75;0.00209663;1.0;2
489.266;107.5;0.00316405;1.0;2
493.024;108.25;0.00470969;1.0;2
496.782;109.0;0.00691534;1.0;2
500.541;109.75;0.0100181;1.0;2
504.301;110.5;0.0143163;1.0;2
508.055;111.25;0.0201707;1.0;2
511.798;112.0;0.028009;1.0;2
515.603;112.75;0.0385666;1.0;2
519.459;113.5;0.0525796;1.0;2
523.318;114.25;0.0706734;1.0;2
527.4373;115.0;0.0953791;1.0;2
531.691;115.75;0.127777;1.0;2
535.532;116.5;0.163899;1.0;2
539.218;117.25;0.205379;1.0;2
542.871;118.0;0.25352;1.0;2
546.514;118.75;0.308787;1.0;2
550.163;119.5;0.371414;1.0;2
553.823;120.25;0.441253;1.0;2
557.497;121.0;0.517791;1.0;2
561.172;121.75;0.599754;1.0;2
564.8499;122.5;0.685761;1.0;2
568.536;123.25;0.774109;1.0;2
572.223;124.0;0.862483;1.0;2
575.917;124.75;0.948573;1.0;2
579.631;125.5;1.03001;1.0;2
583.346;126.25;1.10365;1.0;2
587.052;127.0;1.16677;1.0;2
590.7589;127.75;1.21725;1.0;2
594.481;128.5;1.25328;1.0;2
598.207;129.25;1.27324;1.0;2
601.936;130.0;1.27628;1.0;2
605.666;130.75;1.26226;1.0;2
609.393;131.5;1.23176;1.0;2
613.123;132.25;1.18594;1.0;2
616.8482;133.0;1.12666;1.0;2
620.572;133.75;1.05611;1.0;2
624.294;134.5;0.976883;1.0;2
628.015;135.25;0.891588;1.0;2
631.726;136.0;0.803159;1.0;2
635.431;136.75;0.714118;1.0;2
639.138;137.5;0.626515;1.0;2
642.848;138.25;0.542343;1.0;2
646.558;139.0;0.463291;1.0;2
650.261;139.75;0.390655;1.0;2
653.958;140.5;0.325188;1.0;2
657.646;141.25;0.267263;1.0;2
661.33;142.0;0.21684;1.0;2
665.017;142.75;0.173612;1.0;2
668.703;143.5;0.137196;1.0;2
672.376;144.25;0.107102;1.0;2
676.039;145.0;0.082585;1.0;2
679.697;145.75;0.0628845;1.0;2
683.346;146.5;0.0473022;1.0;2
686.986;147.25;0.0351545;1.0;2
690.618;148.0;0.0258114;1.0;2
694.256;148.75;0.0187008;1.0;2
697.916;149.5;0.0133499;1.0;2
701.601;150.25;0.00938461;1.0;2
705.291;151.0;0.00650784;1.0;2
708.999;151.75;0.00444523;1.0;2
712.7091;152.5;0.00299598;1.0;2
716.416;153.25;0.00199318;1.0;2
720.121;154.0;0.00130885;1.0;2
723.827;154.75;0.000848052;1.0;2
727.532;155.5;0.000542283;1.0;2
731.242;156.25;0.000341989;1.0;2
734.95;157.0;0.00021288;1.0;2
738.661;157.75;0.00013071;1.0;2
742.371;158.5;7.92132e-05;1.0;2
746.0747;159.25;4.74104e-05;1.0;2
749.774;160.0;2.80203e-05;1.0;2
753.474;160.75;1.63425e-05;1.0;2
757.179;161.5;9.39856e-06;1.0;2
760.88;162.25;5.33653e-06;1.0;2
764.587;163.0;2.98791e-06;1.0;2
768.295;163.75;1.65061e-06;1.0;2
772.008;164.5;8.99032e-07;1.0;2
775.722;165.25;4.83094e-07;1.0;2
779.436;166.0;2.56182e-07;1.0;2
783.14;166.75;1.34289e-07;1.0;2
786.842;167.5;6.9491e-08;1.0;2
790.548;168.25;3.54601e-08;1.0;2
794.255;169.0;1.78503e-08;1.0;2
797.966;169.75;8.86164e-09;1.0;2
801.672;170.5;4.3459e-09;1.0;2
805.379;171.25;2.1025e-09;1.0;2
809.08;172.0;1.00495e-09;1.0;2
812.779;172.75;4.74272e-10;1.0;2
816.475;173.5;2.21004e-10;1.0;2
820.177;174.25;1.0151e-10;1.0;2
823.877;175.0;4.60324e-11;1.0;2
827.58;175.75;2.0586e-11;1.0;2
831.283;176.5;9.08575e-12;1.0;2
834.987;177.25;3.95567e-12;1.0;2
838.691;178.0;1.69996e-12;1.0;2
842.396;178.75;7.2056e-13;1.0;2
846.101;179.5;3.01447e-13;1.0;2
849.801;180.25;1.2461e-13;1.0;2
853.5;181.0;5.08494e-14;1.0;2
857.203;181.75;2.04534e-14;1.0;2
860.904;182.5;8.12238e-15;1.0;2
864.607;183.25;3.18217e-15;1.0;2
868.312;184.0;1.22955e-15;1.0;2
872.0177;184.75;4.68756e-16;1.0;2
875.721;185.5;1.76486e-16;1.0;2
879.421;186.25;6.56071e-17;1.0;2
883.121;187.0;2.40741e-17;1.0;2
886.822;187.75;8.71726e-18;1.0;2
890.521;188.5;3.11558e-18;1.0;2
894.216;189.25;1.10035e-18;1.0;2
897.912;190.0;3.83387e-19;1.0;2
901.61;190.75;1.31759e-19;1.0;2
905.315;191.5;4.45969e-20;1.0;2
906.55;191.75;3.09874e-20;1.0;2

File: peak_4.txt
#EXPORTTYPE:DATA SINGLE
#FILE:00592013__Al2O3_900_5_N2_20_air_20.ngb-ds1
#FTYPE:ANSI
#IDENTITY:005920
#DECIMAL:POINT
#SEPARATOR:SEMICOLON
#MTYPE:DSC
#PROJECT:
#DATE/TIME:21.07.2025 08:33
#CORR. FILE:005919_bline_Al2O3_900_5_N2_20_air_20.ngb-bs1
#TEMPCAL:TCALZERO.TCX
#SENSITIVITY:SENSZERO.EXX
#LABORATORY: 11
#OPERATOR:
#REMARK:
#SAMPLE:1
#SAMPLE MASS /mg:9.99
#MATERIAL:
#REFERENCE:
#REFERENCE MASS /mg:0
#TYPE OF CRUCIBLE:DSC/TG pan Al2O3
#SAMPLE CRUCIBLE MASS /mg:0
#REFERENCE CRUCIBLE MASS /mg:0
#DSC RANGE /V:5000
#TG RANGE /mg:5000
#TAU-R:---
#CORR. CODE:020
#EXO:+1
#RANGE:35C/00:00/35C/5,0(K/min)/920C/
#SEGMENT:S1-2/2
#SEG. 1:35C/00:15/35C
#SEG. 2:35C/5,0(K/min)/920C

##Temp./C;Time/min;DSC/(uV/mg);Sensit./(uV/mW);Segment
34.17636;0.25;1.22112e-229;1.0;1
34.17688;1.0;1.22221e-229;1.0;1
34.16876;1.75;1.20531e-229;1.0;1
34.16576;2.5;1.19913e-229;1.0;1
34.16288;3.25;1.19322e-229;1.0;1
34.16165;4.0;1.19071e-229;1.0;1
34.16759;4.75;1.2029e-229;1.0;1
34.15641;5.5;1.18005e-229;1.0;1
34.15641;6.25;1.18005e-229;1.0;1
34.15471;7.0;1.17662e-229;1.0;1
34.15988;7.75;1.1871e-229;1.0;1
34.15247;8.5;1.17211e-229;1.0;1
34.15082;9.25;1.1688e-229;1.0;1
34.15165;10.0;1.17046e-229;1.0;1
34.14282;10.75;1.15287e-229;1.0;1
34.13618;11.5;1.13982e-229;1.0;1
34.12518;12.25;1.11852e-229;1.0;1
34.12447;13.0;1.11715e-229;1.0;1
34.12024;13.75;1.10908e-229;1.0;1
34.10235;14.5;1.07557e-229;1.0;1
34.10516;15.25;1.08076e-229;1.0;2
34.42622;16.0;1.87414e-229;1.0;2
35.61708;16.75;1.44035e-228;1.0;2
37.54164;17.5;3.85624e-227;1.0;2
39.94421;18.25;2.30231e-225;1.0;2
42.69183;19.0;2.42467e-223;1.0;2
45.6928;19.75;3.82982e-221;1.0;2
48.88834;20.5;8.17047e-219;1.0;2
52.23305;21.25;2.17162e-216;1.0;2
55.68474;22.0;6.67814e-214;1.0;2
59.23476;22.75;2.33528e-211;1.0;2
62.86358;23.5;8.96808e-209;1.0;2
66.53528;24.25;3.55924e-206;1.0;2
70.24448;25.0;1.44533e-203;1.0;2
73.97395;25.75;5.83474e-201;1.0;2
77.71669;26.5;2.31422e-198;1.0;2
81.47146;27.25;8.99664e-196;1.0;2
85.24469;28.0;3.46161e-193;1.0;2
89.03755;28.75;1.31989e-190;1.0;2
92.84121;29.5;4.91628e-188;1.0;2
96.65528;30.25;1.78718e-185;1.0;2
100.482;31.0;6.35904e-183;1.0;2
104.318;31.75;2.20378e-180;1.0;2
108.15;32.5;7.28046e-178;1.0;2
111.973;33.25;2.2793e-175;1.0;2
115.8;34.0;6.89256e-173;1.0;2
119.615;34.75;1.96627e-170;1.0;2
123.434;35.5;5.41502e-168;1.0;2
127.259;36.25;1.44308e-165;1.0;2
131.096;37.0;3.75837e-163;1.0;2
134.935;37.75;9.42439e-161;1.0;2
138.773;38.5;2.26631e-158;1.0;2
142.619;39.25;5.28207e-156;1.0;2
146.477;40.0;1.20326e-153;1.0;2
150.3408;40.75;2.64797e-151;1.0;2
154.201;41.5;5.56689e-149;1.0;2
158.066;42.25;1.12798e-146;1.0;2
161.923;43.0;2.17351e-144;1.0;2
165.782;43.75;4.01958e-142;1.0;2
169.63;44.5;7.0404e-140;1.0;2
173.484;45.25;1.19176e-137;1.0;2
177.339;46.0;1.93879e-135;1.0;2
181.188;46.75;3.001e-133;1.0;2
185.034;47.5;4.4399e-131;1.0;2
188.884;48.25;6.33166e-129;1.0;2
192.741;49.0;8.74689e-127;1.0;2
196.596;49.75;1.15683e-124;1.0;2
200.448;50.5;1.46085e-122;1.0;2
204.303;51.25;1.77938e-120;1.0;2
208.16;52.0;2.08083e-118;1.0;2
212.011;52.75;2.31894e-116;1.0;2
215.857;53.5;2.46484e-114;1.0;2
219.696;54.25;2.49342e-112;1.0;2
223.532;55.0;2.41221e-110;1.0;2
227.368;55.75;2.23936e-108;1.0;2
231.206;56.5;1.99971e-106;1.0;2
235.045;57.25;1.71445e-104;1.0;2
238.878;58.0;1.40212e-102;1.0;2
242.71;58.75;1.10006e-100;1.0;2
246.539;59.5;8.24555e-99;1.0;2
250.374;60.25;5.9799e-97;1.0;2
254.205;61.0;4.14239e-95;1.0;2
258.036;61.75;2.75218e-93;1.0;2
261.867;62.5;1.75741e-91;1.0;2
265.7;63.25;1.07814e-89;1.0;2
269.535;64.0;6.37074e-88;1.0;2
273.359;64.75;3.56857e-86;1.0;2
277.181;65.5;1.9153e-84;1.0;2
281.006;66.25;9.89654e-83;1.0;2
284.836;67.0;4.93601e-81;1.0;2
288.666;67.75;2.36189e-79;1.0;2
292.485;68.5;1.07374e-77;1.0;2
296.307;69.25;4.70168e-76;1.0;2
300.129;70.0;1.97508e-74;1.0;2
303.947;70.75;7.93703e-73;1.0;2
307.755;71.5;3.03427e-71;1.0;2
311.568;72.25;1.11828e-69;1.0;2
315.373;73.0;3.93162e-68;1.0;2
319.1809;73.75;1.33073e-66;1.0;2
322.988;74.5;4.32178e-65;1.0;2
326.7946;75.25;1.34766e-63;1.0;2
330.599;76.0;4.02805e-62;1.0;2
334.409;76.75;1.16172e-60;1.0;2
338.201;77.5;3.16669e-59;1.0;2
342.001;78.25;8.35728e-58;1.0;2
345.801;79.0;2.11656e-56;1.0;2
349.596;79.75;5.13228e-55;1.0;2
353.392;80.5;1.19508e-53;1.0;2
357.19;81.25;2.67871e-52;1.0;2
360.985;82.0;5.75729e-51;1.0;2
364.776;82.75;1.18427e-49;1.0;2
368.565;83.5;2.33569e-48;1.0;2
372.3491;84.25;4.41102e-47;1.0;2
376.134;85.0;8.00982e-46;1.0;2
379.921;85.75;1.39894e-44;1.0;2
383.7;86.5;2.3339e-43;1.0;2
387.478;87.25;3.74197e-42;1.0;2
391.254;88.0;5.75326e-41;1.0;2
395.0354;88.75;8.53098e-40;1.0;2
398.817;89.5;1.21609e-38;1.0;2
402.599;90.25;1.6656e-37;1.0;2
406.379;91.0;2.19026e-36;1.0;2
410.16;91.75;2.76852e-35;1.0;2
413.935;92.5;3.35009e-34;1.0;2
417.706;93.25;3.88505e-33;1.0;2
421.478;94.0;4.33233e-32;1.0;2
425.248;94.75;4.63855e-31;1.0;2
429.019;95.5;4.77603e-30;1.0;2
432.795;96.25;4.74142e-29;1.0;2
436.573;97.0;4.52723e-28;1.0;2
440.3477;97.75;4.14572e-27;1.0;2
444.117;98.5;3.63848e-26;1.0;2
447.8979;99.25;3.088e-25;1.0;2
451.676;100.0;2.51545e-24;1.0;2
455.4418;100.75;1.95523e-23;1.0;2
459.202;101.5;1.45669e-22;1.0;2
462.968;102.25;1.04653e-21;1.0;2
466.727;103.0;7.20165e-21;1.0;2
470.486;103.75;4.76364e-20;1.0;2
474.243;104.5;3.02645e-19;1.0;2
477.9978;105.25;1.8463e-18;1.0;2
481.753;106.0;1.08322e-17;1.0;2
485.507;106.75;6.10637e-17;1.0;2
489.266;107.5;3.31693e-16;1.0;2
493.024;108.25;1.7313e-15;1.0;2
496.782;109.0;8.68715e-15;1.0;2
500.541;109.75;4.19353e-14;1.0;2
504.301;110.5;1.94615e-13;1.0;2
508.055;111.25;8.66271e-13;1.0;2
511.798;112.0;3.69195e-12;1.0;2
515.603;112.75;1.5484e-11;1.0;2
519.459;113.5;6.35439e-11;1.0;2
523.318;114.25;2.50367e-10;1.0;2
527.4373;115.0;1.03342e-09;1.0;2
531.691;115.75;4.25209e-09;1.0;2
535.532;116.5;1.45991e-08;1.0;2
539.218;117.25;4.58987e-08;1.0;2
542.871;118.0;1.37552e-07;1.0;2
546.514;118.75;3.96094e-07;1.0;2
550.163;119.5;1.10083e-06;1.0;2
553.823;120.25;2.95648e-06;1.0;2
557.497;121.0;7.67631e-06;1.0;2
561.172;121.75;1.91983e-05;1.0;2
564.8499;122.5;4.62717e-05;1.0;2
568.536;123.25;0.000107579;1.0;2
572.223;124.0;0.000240885;1.0;2
575.917;124.75;0.000520047;1.0;2
579.631;125.5;0.00108494;1.0;2
583.346;126.25;0.00217824;1.0;2
587.052;127.0;0.00420207;1.0;2
590.7589;127.75;0.00780152;1.0;2
594.481;128.5;0.0139712;1.0;2
598.207;129.25;0.0240882;1.0;2
601.936;130.0;0.0399626;1.0;2
605.666;130.75;0.0637932;1.0;2
609.393;131.5;0.0979168;1.0;2
613.123;132.25;0.144618;1.0;2
616.8482;133.0;0.205374;1.0;2
620.572;133.75;0.28056;1.0;2
624.294;134.5;0.368642;1.0;2
628.015;135.25;0.466021;1.0;2
631.726;136.0;0.566538;1.0;2
635.431;136.75;0.662576;1.0;2
639.138;137.5;0.745853;1.0;2
642.848;138.25;0.808046;1.0;2
646.558;139.0;0.842432;1.0;2
650.261;139.75;0.845215;1.0;2
653.958;140.5;0.81625;1.0;2
657.646;141.25;0.758944;1.0;2
661.33;142.0;0.679472;1.0;2
665.017;142.75;0.585648;1.0;2
668.703;143.5;0.486014;1.0;2
672.376;144.25;0.388661;1.0;2
676.039;145.0;0.29955;1.0;2
679.697;145.75;0.222482;1.0;2
683.346;146.5;0.159322;1.0;2
686.986;147.25;0.110044;1.0;2
690.618;148.0;0.0733148;1.0;2
694.256;148.75;0.0470414;1.0;2
697.916;149.5;0.029003;1.0;2
701.601;150.25;0.0171621;1.0;2
705.291;151.0;0.00976999;1.0;2
708.999;151.75;0.00533761;1.0;2
712.7091;152.5;0.00280584;1.0;2
716.416;153.25;0.00142012;1.0;2
720.121;154.0;0.00069201;1.0;2
723.827;154.75;0.000324468;1.0;2
727.532;155.5;0.000146435;1.0;2
731.242;156.25;6.35343e-05;1.0;2
734.95;157.0;2.65396e-05;1.0;2
738.661;157.75;1.06605e-05;1.0;2
742.371;158.5;4.12238e-06;1.0;2
746.0747;159.25;1.53652e-06;1.0;2
749.774;160.0;5.5188e-07;1.0;2
753.474;160.75;1.90784e-07;1.0;2
757.179;161.5;6.33767e-08;1.0;2
760.88;162.25;2.02821e-08;1.0;2
764.587;163.0;6.23724e-09;1.0;2
768.295;163.75;1.84536e-09;1.0;2
772.008;164.5;5.24471e-10;1.0;2
775.722;165.25;1.43371e-10;1.0;2
779.436;166.0;3.77212e-11;1.0;2
783.14;166.75;9.5855e-12;1.0;2
786.842;167.5;2.34606e-12;1.0;2
790.548;168.25;5.51758e-13;1.0;2
794.255;169.0;1.24797e-13;1.0;2
797.966;169.75;2.71271e-14;1.0;2
801.672;170.5;5.68797e-15;1.0;2
805.379;171.25;1.14695e-15;1.0;2
809.08;172.0;2.23164e-16;1.0;2
812.779;172.75;4.18402e-17;1.0;2
816.475;173.5;7.55962e-18;1.0;2
820.177;174.25;1.31114e-18;1.0;2
823.877;175.0;2.19092e-19;1.0;2
827.58;175.75;3.51824e-20;1.0;2
831.283;176.5;5.43849e-21;1.0;2
834.987;177.25;8.08366e-22;1.0;2
838.691;178.0;1.15711e-22;1.0;2
842.396;178.75;1.59212e-23;1.0;2
846.101;179.5;2.10911e-24;1.0;2
849.801;180.25;2.69706e-25;1.0;2
853.5;181.0;3.32207e-26;1.0;2
857.203;181.75;3.92771e-27;1.0;2
860.904;182.5;4.47401e-28;1.0;2
864.607;183.25;4.90168e-29;1.0;2
868.312;184.0;5.16111e-30;1.0;2
872.0177;184.75;5.22826e-31;1.0;2
875.721;185.5;5.10623e-32;1.0;2
879.421;186.25;4.80589e-33;1.0;2
883.121;187.0;4.35608e-34;1.0;2
886.822;187.75;3.79986e-35;1.0;2
890.521;188.5;3.19169e-36;1.0;2
894.216;189.25;2.58865e-37;1.0;2
897.912;190.0;2.01928e-38;1.0;2
901.61;190.75;1.51425e-39;1.0;2
905.315;191.5;1.08764e-40;1.0;2
906.55;191.75;4.48243e-41;1.0;2