Folder: PeaksSeparation.jl/src/data/kinetics/q7t5 (part 2)

File: peak_4.txt
#EXPORTTYPE:DATA SINGLE
#FTYPE:ANSI
#DECIMAL:POINT
#SEPARATOR:SEMICOLON
#MTYPE:DSC
#PROJECT:
#CORR. FILE:005925_bline_Al2O3_900_7.5_N2_20_air_20.ngb-bs1
#TEMPCAL:TCALZERO.TCX
#SENSITIVITY:SENSZERO.EXX
#LABORATORY:13
#OPERATOR:
#REMARK:
#SAMPLE:4
#SAMPLE MASS /mg:7.42
#MATERIAL:
#REFERENCE:
#REFERENCE MASS /mg:0
#TYPE OF CRUCIBLE:DSC/TG pan Al2O3
#SAMPLE CRUCIBLE MASS /mg:0
#REFERENCE CRUCIBLE MASS /mg:0
#DSC RANGE /V:5000
#TG RANGE /mg:5000
#TAU-R:---
#CORR. CODE:020
#EXO:+1
#RANGE:35C/7,5(K/min)/920�C
#SEGMENT:S1/1
#SEG. 1:35�C/7,5(K/min)/920�C

##Temp./�C;Time/min;DSC/(uV/mg);Sensit./(uV/mW)
34.14896;0.5;0.0;1.0
34.59436;1.0;0.0;1.0
35.68375;1.5;0.0;1.0
37.32905;2.0;0.0;1.0
39.42311;2.5;0.0;1.0
41.82416;3.0;0.0;1.0
44.48642;3.5;0.0;1.0
47.36371;4.0;0.0;1.0
50.40853;4.5;0.0;1.0
53.59856;5.0;0.0;1.0
56.91062;5.5;0.0;1.0
60.33416;6.0;0.0;1.0
63.83709;6.5;0.0;1.0
67.40722;7.0;0.0;1.0
71.01816;7.5;0.0;1.0
74.673;8.0;0.0;1.0
78.36113;8.5;0.0;1.0
82.0722;9.0;0.0;1.0
85.82376;9.5;0.0;1.0
89.60155;10.0;0.0;1.0
93.40258;10.5;0.0;1.0
97.22127;11.0;0.0;1.0
101.0636;11.5;0.0;1.0
104.918;12.0;0.0;1.0
108.783;12.5;0.0;1.0
112.642;13.0;1.7594e-320;1.0
116.508;13.5;4.57609e-316;1.0
120.368;14.0;1.09326e-311;1.0
124.229;14.5;2.44423e-307;1.0
128.1;15.0;5.20875e-303;1.0
131.969;15.5;1.03058e-298;1.0
135.851;16.0;1.96261e-294;1.0
139.739;16.5;3.53778e-290;1.0
143.637;17.0;6.07301e-286;1.0
147.54;17.5;9.85288e-282;1.0
151.447;18.0;1.49593e-277;1.0
155.351;18.5;2.10474e-273;1.0
159.254;19.0;2.74344e-269;1.0
163.1588;19.5;3.34394e-265;1.0
167.059;20.0;3.74647e-261;1.0
170.9538;20.5;3.86449e-257;1.0
174.8622;21.0;3.82633e-253;1.0
178.753;21.5;3.38668e-249;1.0
182.6578;22.0;2.87566e-245;1.0
186.561;22.5;2.26481e-241;1.0
190.467;23.0;1.6731e-237;1.0
194.37;23.5;1.13974e-233;1.0
198.27;24.0;7.18415e-230;1.0
202.169;24.5;4.20271e-226;1.0
206.063;25.0;2.26563e-222;1.0
209.955;25.5;1.12891e-218;1.0
213.846;26.0;5.23459e-215;1.0
217.731;26.5;2.23049e-211;1.0
221.614;27.0;8.81642e-208;1.0
225.496;27.5;3.23706e-204;1.0
229.384;28.0;1.11912e-200;1.0
233.268;28.5;3.57268e-197;1.0
237.151;29.0;1.06046e-193;1.0
241.031;29.5;2.91438e-190;1.0
244.91;30.0;7.44245e-187;1.0
248.785;30.5;1.75676e-183;1.0
252.667;31.0;3.90994e-180;1.0
256.535;31.5;7.89982e-177;1.0
260.406;32.0;1.4942e-173;1.0
264.2732;32.5;2.61321e-170;1.0
268.144;33.0;4.29162e-167;1.0
272.016;33.5;6.5638e-164;1.0
275.882;34.0;9.27509e-161;1.0
279.747;34.5;1.2173e-157;1.0
283.612;35.0;1.48781e-154;1.0
287.475;35.5;1.68751e-151;1.0
291.334;36.0;1.77278e-148;1.0
295.187;36.5;1.71919e-145;1.0
299.038;37.0;1.54662e-142;1.0
302.89;37.5;1.29847e-139;1.0
306.742;38.0;1.01646e-136;1.0
310.596;38.5;7.44168e-134;1.0
314.448;39.0;5.06967e-131;1.0
318.302;39.5;3.2235e-128;1.0
322.149;40.0;1.89142e-125;1.0
325.994;40.5;1.03115e-122;1.0
329.836;41.0;5.21407e-120;1.0
333.676;41.5;2.45221e-117;1.0
337.513;42.0;1.07056e-114;1.0
341.344;42.5;4.31067e-112;1.0
345.166;43.0;1.60058e-109;1.0
348.9924;43.5;5.57845e-107;1.0
352.815;44.0;1.80407e-104;1.0
356.633;44.5;5.40282e-102;1.0
360.4502;45.0;1.51055e-99;1.0
364.264;45.5;3.92253e-97;1.0
368.076;46.0;9.46521e-95;1.0
371.885;46.5;2.12723e-92;1.0
375.692;47.0;4.45015e-90;1.0
379.505;47.5;8.76378e-88;1.0
383.318;48.0;1.60945e-85;1.0
387.127;48.5;2.74732e-83;1.0
390.937;49.0;4.38432e-81;1.0
394.738;49.5;6.4527e-79;1.0
398.538;50.0;8.86036e-77;1.0
402.337;50.5;1.1345e-74;1.0
406.133;51.0;1.35278e-72;1.0
409.932;51.5;1.51147e-70;1.0
413.734;52.0;1.58221e-68;1.0
417.53;52.5;1.53689e-66;1.0
421.327;53.0;1.39652e-64;1.0
425.122;53.5;1.18092e-62;1.0
428.909;54.0;9.25646e-61;1.0
432.696;54.5;6.77577e-59;1.0
436.484;55.0;4.63666e-57;1.0
440.271;55.5;2.9662e-55;1.0
444.066;56.0;1.7859e-53;1.0
447.854;56.5;9.97079e-52;1.0
451.637;57.0;5.17827e-50;1.0
455.424;57.5;2.52194e-48;1.0
459.212;58.0;1.14861e-46;1.0
462.995;58.5;4.86584e-45;1.0
466.78;59.0;1.93081e-43;1.0
470.554;59.5;7.08296e-42;1.0
474.329;60.0;2.4294e-40;1.0
478.106;60.5;7.80921e-39;1.0
481.877;61.0;2.33501e-37;1.0
485.652;61.5;6.54129e-36;1.0
489.424;62.0;1.70995e-34;1.0
493.193;62.5;4.16834e-33;1.0
496.965;63.0;9.52453e-32;1.0
500.744;63.5;2.04683e-30;1.0
504.524;64.0;4.11354e-29;1.0
508.303;64.5;7.72034e-28;1.0
512.088;65.0;1.35993e-26;1.0
515.875;65.5;2.24176e-25;1.0
519.665;66.0;3.46247e-24;1.0
523.463;66.5;5.01995e-23;1.0
527.268;67.0;6.83341e-22;1.0
531.111;67.5;8.90744e-21;1.0
535.001;68.0;1.11585e-19;1.0
538.928;68.5;1.33119e-18;1.0
542.743;69.0;1.37964e-17;1.0
546.55;69.5;1.32899e-16;1.0
550.383;70.0;1.21282e-15;1.0
554.184;70.5;1.01469e-14;1.0
557.935;71.0;7.71959e-14;1.0
561.663;71.5;5.42791e-13;1.0
565.37;72.0;3.53734e-12;1.0
569.063;72.5;2.14626e-11;1.0
572.754;73.0;1.21957e-10;1.0
576.457;73.5;6.53137e-10;1.0
580.161;74.0;3.27971e-09;1.0
583.862;74.5;1.54119e-08;1.0
587.572;75.0;6.81292e-08;1.0
591.287;75.5;2.82753e-07;1.0
595.011;76.0;1.10277e-06;1.0
598.7338;76.5;4.02533e-06;1.0
602.462;77.0;1.37859e-05;1.0
606.19;77.5;4.42075e-05;1.0
609.922;78.0;0.000132877;1.0
613.6602;78.5;0.000374567;1.0
617.394;79.0;0.000987316;1.0
621.129;79.5;0.00243654;1.0
624.865;80.0;0.00562985;1.0
628.596;80.5;0.0121683;1.0
632.325;81.0;0.0246114;1.0
636.053;81.5;0.0465949;1.0
639.777;82.0;0.0825652;1.0
643.495;82.5;0.136904;1.0
647.214;83.0;0.212652;1.0
650.933;83.5;0.309354;1.0
654.65;84.0;0.421496;1.0
658.368;84.5;0.538003;1.0
662.089;85.0;0.643261;1.0
665.812;85.5;0.720383;1.0
669.526;86.0;0.755501;1.0
673.235;86.5;0.742326;1.0
676.932;87.0;0.683665;1.0
680.621;87.5;0.590419;1.0
684.301;88.0;0.478399;1.0
687.975;88.5;0.363736;1.0
691.6386;89.0;0.259723;1.0
695.298;89.5;0.17412;1.0
698.957;90.0;0.109579;1.0
702.6104;90.5;0.0647783;1.0
706.277;91.0;0.0358699;1.0
709.947;91.5;0.0186283;1.0
713.632;92.0;0.00904672;1.0
717.331;92.5;0.00410829;1.0
721.039;93.0;0.00174484;1.0
724.755;93.5;0.000692919;1.0
728.468;94.0;0.000258006;1.0
732.1838;94.5;8.99106e-05;1.0
735.899;95.0;2.93611e-05;1.0
739.613;95.5;8.98551e-06;1.0
743.327;96.0;2.57562e-06;1.0
747.039;96.5;6.92228e-07;1.0
750.748;97.0;1.74497e-07;1.0
754.452;97.5;4.13e-08;1.0
758.164;98.0;9.1283e-09;1.0
761.881;98.5;1.8866e-09;1.0
765.603;99.0;3.64283e-10;1.0
769.328;99.5;6.5814e-11;1.0
773.047;100.0;1.11619e-11;1.0
776.767;100.5;1.77294e-12;1.0
780.486;101.0;2.63785e-13;1.0
784.203;101.5;3.682e-14;1.0
787.921;102.0;4.81052e-15;1.0
791.638;102.5;5.89018e-16;1.0
795.3552;103.0;6.75382e-17;1.0
799.075;103.5;7.2435e-18;1.0
802.799;104.0;7.2587e-19;1.0
806.516;104.5;6.84053e-20;1.0
810.234;105.0;6.03644e-21;1.0
813.949;105.5;4.99731e-22;1.0
817.668;106.0;3.86649e-23;1.0
821.39;106.5;2.79439e-24;1.0
825.108;107.0;1.89744e-25;1.0
828.833;107.5;1.20115e-26;1.0
832.557;108.0;7.1223e-28;1.0
836.283;108.5;3.94816e-29;1.0
840.01;109.0;2.0493e-30;1.0
843.739;109.5;9.94296e-32;1.0
847.464;110.0;4.52938e-33;1.0
851.174;110.5;1.95758e-34;1.0
854.889;111.0;7.89013e-36;1.0
858.605;111.5;2.97761e-37;1.0
862.3222;112.0;1.05166e-38;1.0
866.0378;112.5;3.48368e-40;1.0
869.751;113.0;1.08296e-41;1.0
873.463;113.5;3.16063e-43;1.0
877.17;114.0;8.68346e-45;1.0
880.875;114.5;2.23906e-46;1.0
884.583;115.0;5.39001e-48;1.0
888.291;115.5;1.21713e-49;1.0
891.993;116.0;2.5897e-51;1.0
895.693;116.5;5.17998e-53;1.0
899.391;117.0;9.72739e-55;1.0
903.082;117.5;1.72474e-56;1.0

File: peak_5.txt
#EXPORTTYPE:DATA SINGLE
#FTYPE:ANSI
#DECIMAL:POINT
#SEPARATOR:SEMICOLON
#MTYPE:DSC
#PROJECT:
#CORR. FILE:005925_bline_Al2O3_900_7.5_N2_20_air_20.ngb-bs1
#TEMPCAL:TCALZERO.TCX
#SENSITIVITY:SENSZERO.EXX
#LABORATORY:13
#OPERATOR:
#REMARK:
#SAMPLE:4
#SAMPLE MASS /mg:7.42
#MATERIAL:
#REFERENCE:
#REFERENCE MASS /mg:0
#TYPE OF CRUCIBLE:DSC/TG pan Al2O3
#SAMPLE CRUCIBLE MASS /mg:0
#REFERENCE CRUCIBLE MASS /mg:0
#DSC RANGE /V:5000
#TG RANGE /mg:5000
#TAU-R:---
#CORR. CODE:020
#EXO:+1
#RANGE:35C/7,5(K/min)/920�C
#SEGMENT:S1/1
#SEG. 1:35�C/7,5(K/min)/920�C

##Temp./�C;Time/min;DSC/(uV/mg);Sensit./(uV/mW)
34.14896;0.5;0.0;1.0
34.59436;1.0;0.0;1.0
35.68375;1.5;0.0;1.0
37.32905;2.0;0.0;1.0
39.42311;2.5;0.0;1.0
41.82416;3.0;0.0;1.0
44.48642;3.5;0.0;1.0
47.36371;4.0;0.0;1.0
50.40853;4.5;0.0;1.0
53.59856;5.0;0.0;1.0
56.91062;5.5;0.0;1.0
60.33416;6.0;0.0;1.0
63.83709;6.5;0.0;1.0
67.40722;7.0;0.0;1.0
71.01816;7.5;0.0;1.0
74.673;8.0;0.0;1.0
78.36113;8.5;0.0;1.0
82.0722;9.0;0.0;1.0
85.82376;9.5;0.0;1.0
89.60155;10.0;0.0;1.0
93.40258;10.5;0.0;1.0
97.22127;11.0;0.0;1.0
101.0636;11.5;0.0;1.0
104.918;12.0;0.0;1.0
108.783;12.5;0.0;1.0
112.642;13.0;0.0;1.0
116.508;13.5;0.0;1.0
120.368;14.0;0.0;1.0
124.229;14.5;0.0;1.0
128.1;15.0;0.0;1.0
131.969;15.5;0.0;1.0
135.851;16.0;0.0;1.0
139.739;16.5;0.0;1.0
143.637;17.0;0.0;1.0
147.54;17.5;0.0;1.0
151.447;18.0;0.0;1.0
155.351;18.5;0.0;1.0
159.254;19.0;0.0;1.0
163.1588;19.5;0.0;1.0
167.059;20.0;0.0;1.0
170.9538;20.5;0.0;1.0
174.8622;21.0;0.0;1.0
178.753;21.5;0.0;1.0
182.6578;22.0;0.0;1.0
186.561;22.5;0.0;1.0
190.467;23.0;0.0;1.0
194.37;23.5;0.0;1.0
198.27;24.0;0.0;1.0
202.169;24.5;0.0;1.0
206.063;25.0;0.0;1.0
209.955;25.5;0.0;1.0
213.846;26.0;0.0;1.0
217.731;26.5;0.0;1.0
221.614;27.0;0.0;1.0
225.496;27.5;0.0;1.0
229.384;28.0;0.0;1.0
233.268;28.5;0.0;1.0
237.151;29.0;0.0;1.0
241.031;29.5;0.0;1.0
244.91;30.0;0.0;1.0
248.785;30.5;0.0;1.0
252.667;31.0;0.0;1.0
256.535;31.5;0.0;1.0
260.406;32.0;0.0;1.0
264.2732;32.5;0.0;1.0
268.144;33.0;0.0;1.0
272.016;33.5;0.0;1.0
275.882;34.0;0.0;1.0
279.747;34.5;0.0;1.0
283.612;35.0;0.0;1.0
287.475;35.5;0.0;1.0
291.334;36.0;0.0;1.0
295.187;36.5;0.0;1.0
299.038;37.0;0.0;1.0
302.89;37.5;0.0;1.0
306.742;38.0;0.0;1.0
310.596;38.5;0.0;1.0
314.448;39.0;0.0;1.0
318.302;39.5;0.0;1.0
322.149;40.0;0.0;1.0
325.994;40.5;0.0;1.0
329.836;41.0;0.0;1.0
333.676;41.5;0.0;1.0
337.513;42.0;0.0;1.0
341.344;42.5;0.0;1.0
345.166;43.0;1.309234e-318;1.0
348.9924;43.5;1.46355e-311;1.0
352.815;44.0;1.3428e-304;1.0
356.633;44.5;1.00552e-297;1.0
360.4502;45.0;6.28483e-291;1.0
364.264;45.5;3.2324e-284;1.0
368.076;46.0;1.36985e-277;1.0
371.885;46.5;4.81366e-271;1.0
375.692;47.0;1.40038e-264;1.0
379.505;47.5;3.48006e-258;1.0
383.318;48.0;7.1964e-252;1.0
387.127;48.5;1.22701e-245;1.0
390.937;49.0;1.7531e-239;1.0
394.738;49.5;2.02045e-233;1.0
398.538;50.0;1.94001e-227;1.0
402.337;50.5;1.54962e-221;1.0
406.133;51.0;1.02593e-215;1.0
409.932;51.5;5.72756e-210;1.0
413.734;52.0;2.69559e-204;1.0
417.53;52.5;1.0409e-198;1.0
421.327;53.0;3.37378e-193;1.0
425.122;53.5;9.04503e-188;1.0
428.909;54.0;1.98348e-182;1.0
432.696;54.5;3.63324e-177;1.0
436.484;55.0;5.57516e-172;1.0
440.271;55.5;7.16736e-167;1.0
444.066;56.0;7.86795e-162;1.0
447.854;56.5;7.07142e-157;1.0
451.637;57.0;5.24983e-152;1.0
455.424;57.5;3.29414e-147;1.0
459.212;58.0;1.73336e-142;1.0
462.995;58.5;7.53166e-138;1.0
466.78;59.0;2.7571e-133;1.0
470.554;59.5;8.18969e-129;1.0
474.329;60.0;2.03871e-124;1.0
478.106;60.5;4.28184e-120;1.0
481.877;61.0;7.42618e-116;1.0
485.652;61.5;1.0857e-111;1.0
489.424;62.0;1.32265e-107;1.0
493.193;62.5;1.34004e-103;1.0
496.965;63.0;1.14606e-99;1.0
500.744;63.5;8.35537e-96;1.0
504.524;64.0;5.10832e-92;1.0
508.303;64.5;2.6084e-88;1.0
512.088;65.0;1.12872e-84;1.0
515.875;65.5;4.1045e-81;1.0
519.665;66.0;1.25881e-77;1.0
523.463;66.5;3.27378e-74;1.0
527.268;67.0;7.22601e-71;1.0
531.111;67.5;1.43517e-67;1.0
535.001;68.0;2.59417e-64;1.0
538.928;68.5;4.15724e-61;1.0
542.743;69.0;4.4901e-58;1.0
546.55;69.5;3.99471e-55;1.0
550.383;70.0;3.10041e-52;1.0
554.184;70.5;1.90159e-49;1.0
557.935;71.0;8.98517e-47;1.0
561.663;71.5;3.43319e-44;1.0
565.37;72.0;1.06945e-41;1.0
569.063;72.5;2.7526e-39;1.0
572.754;73.0;5.95975e-37;1.0
576.457;73.5;1.10714e-34;1.0
580.161;74.0;1.73684e-32;1.0
583.862;74.5;2.28688e-30;1.0
587.572;75.0;2.56941e-28;1.0
591.287;75.5;2.44848e-26;1.0
595.011;76.0;1.98531e-24;1.0
598.7338;76.5;1.35202e-22;1.0
602.462;77.0;7.79655e-21;1.0
606.19;77.5;3.78172e-19;1.0
609.922;78.0;1.54858e-17;1.0
613.6602;78.5;5.36419e-16;1.0
617.394;79.0;1.55613e-14;1.0
621.129;79.5;3.79682e-13;1.0
624.865;80.0;7.79272e-12;1.0
628.596;80.5;1.3409e-10;1.0
632.325;81.0;1.93666e-09;1.0
636.053;81.5;2.35007e-08;1.0
639.777;82.0;2.39469e-07;1.0
643.495;82.5;2.04655e-06;1.0
647.214;83.0;1.47334e-05;1.0
650.933;83.5;8.92571e-05;1.0
654.65;84.0;0.00045507;1.0
658.368;84.5;0.00195509;1.0
662.089;85.0;0.00707626;1.0
665.812;85.5;0.0215744;1.0
669.526;86.0;0.0552359;1.0
673.235;86.5;0.119014;1.0
676.932;87.0;0.215762;1.0
680.621;87.5;0.329758;1.0
684.301;88.0;0.425268;1.0
687.975;88.5;0.463426;1.0
691.6386;89.0;0.427137;1.0
695.298;89.5;0.333268;1.0
698.957;90.0;0.22015;1.0
702.6104;90.5;0.123232;1.0
706.277;91.0;0.0582517;1.0
709.947;91.5;0.0232767;1.0
713.632;92.0;0.00782564;1.0
717.331;92.5;0.00221157;1.0
721.039;93.0;0.000525197;1.0
724.755;93.5;0.000104722;1.0
728.468;94.0;1.76148e-05;1.0
732.1838;94.5;2.49125e-06;1.0
735.899;95.0;2.9693e-07;1.0
739.613;95.5;2.98303e-08;1.0
743.327;96.0;2.52331e-09;1.0
747.039;96.5;1.80099e-10;1.0
750.748;97.0;1.08546e-11;1.0
754.452;97.5;5.53656e-13;1.0
758.164;98.0;2.36339e-14;1.0
761.881;98.5;8.46483e-16;1.0
765.603;99.0;2.53871e-17;1.0
769.328;99.5;6.39548e-19;1.0
773.047;100.0;1.3629e-20;1.0
776.767;100.5;2.44479e-22;1.0
780.486;101.0;3.69261e-24;1.0
784.203;101.5;4.71251e-26;1.0
787.921;102.0;5.05577e-28;1.0
791.638;102.5;4.57262e-30;1.0
795.3552;103.0;3.48031e-32;1.0
799.075;103.5;2.22329e-34;1.0
802.799;104.0;1.18909e-36;1.0
806.516;104.5;5.40348e-39;1.0
810.234;105.0;2.06608e-41;1.0
813.949;105.5;6.67552e-44;1.0
817.668;106.0;1.80681e-46;1.0
821.39;106.5;4.09126e-49;1.0
825.108;107.0;7.85536e-52;1.0
828.833;107.5;1.25606e-54;1.0
832.557;108.0;1.69101e-57;1.0
836.283;108.5;1.90807e-60;1.0
840.01;109.0;1.81115e-63;1.0
843.739;109.5;1.44041e-66;1.0
847.464;110.0;9.69847e-70;1.0
851.174;110.5;5.66774e-73;1.0
854.889;111.0;2.7601e-76;1.0
858.605;111.5;1.1307e-79;1.0
862.3222;112.0;3.8924e-83;1.0
866.0378;112.5;1.13175e-86;1.0
869.751;113.0;2.78333e-90;1.0
873.463;113.5;5.79563e-94;1.0
877.17;114.0;1.02844e-97;1.0
880.875;114.5;1.54413e-101;1.0
884.583;115.0;1.93674e-105;1.0
888.291;115.5;2.05269e-109;1.0
891.993;116.0;1.85847e-113;1.0
895.693;116.5;1.42942e-117;1.0
899.391;117.0;9.31014e-122;1.0
903.082;117.5;5.20656e-126;1.0