Folder: PeaksSeparation.jl/src/data/kinetics/singlepeaks

Note: README.md
# PeaksSeparation

[![Build Status](https://github.com/Manarom/PeaksSeparation.jl/actions/workflows/CI.yml/badge.svg?branch=main)](https://github.com/Manarom/PeaksSeparation.jl/actions/workflows/CI.yml?query=branch%3Amain)

Small package for peaks separation

<p float="left">
  <img src="./src/data/kinetics/peaks.png" width="320"/>
</p>

# Quick start:
Clone this repository to your local machine in `project_folder` (any name)

In julia REPL run:
```julia
  import Pkg
  cd(project_folder) # sets working folder to project_folder
  Pkg.activate(".")
  Pkg.instantiate() # to install all necessary dependencies
  include(".\\src\\PeaksSeparation.jl")
  using .PeaksSeparation
  (sol,p) = PeaksSeparation.fit_peaks(x,y,N=5) # fits five peaks to y(x) curve
  p[0] # gives baseline object
  p[1] # first peak etc
  using Plots
  plot(p)  # plots peaks
  PeaksSeparation.fit_peaks!(p) # to perform additional fitting
```
Pluto [notebook](https://github.com/Manarom/PeaksSeparation.jl/blob/main/src/dsc_peaks.jl) is also available

File: q-2.txt
#EXPORTTYPE:DATA SINGLE
#FORMAT:NETZSCH5
#FTYPE:ANSI
#IDENTITY:001931
#DECIMAL:POINT
#SEPARATOR:SEMICOLON
#DATE/TIME:16.12.2016 11:34
#CORR. FILE:001930_bline_Al_250_2_N2_70.ngb-bd3
#TEMPCAL:TCALZERO.TMX
#SENSITIVITY:SENSZERO.EXX
#SAMPLE MASS /mg:8.25
#MATERIAL:ïðåïðåã
#REFERENCE:
#REFERENCE MASS /mg:0
#TYPE OF CRUCIBLE:Pan Al, closed
#SAMPLE CRUCIBLE MASS /mg:0
#REFERENCE CRUCIBLE MASS /mg:0
#M.RANGE /µV:5000
#TAU-R:---
#CORR. CODE:020
#EXO:+1
#RANGE:24°C/2,0(K/min)/270°C
#SEGMENT:S1/2
#SEG. 1:24°C/2,0(K/min)/270°C

##Temp./°C;Time/min;DSC/(uV/mg);Sensit./(uV/mW)
 48.47032; 12.50000;    -0.19300;1.00000
 49.37217; 12.95000;    -0.19374;1.00000
 50.27408; 13.40000;    -0.19374;1.00000
 51.17587; 13.85000;    -0.19337;1.00000
 52.07761; 14.30000;    -0.19309;1.00000
 52.97911; 14.75000;    -0.19346;1.00000
 53.88029; 15.20000;    -0.19152;1.00000
 54.78102; 15.65000;    -0.19244;1.00000
 55.68177; 16.10000;    -0.19309;1.00000
 56.58271; 16.55000;    -0.19216;1.00000
 57.48344; 17.00000;    -0.19226;1.00000
 58.38396; 17.45000;    -0.19198;1.00000
 59.28442; 17.90000;    -0.19300;1.00000
 60.18505; 18.35000;    -0.19300;1.00000
 61.08551; 18.80000;    -0.19170;1.00000
 61.98539; 19.25000;    -0.19263;1.00000
 62.88566; 19.70000;    -0.19198;1.00000
 63.78622; 20.15000;    -0.19318;1.00000
 64.68638; 20.60000;    -0.19355;1.00000
 65.58638; 21.05000;    -0.19309;1.00000
 66.48655; 21.50000;    -0.19337;1.00000
 67.38653; 21.95000;    -0.19337;1.00000
 68.28673; 22.40000;    -0.19309;1.00000
 69.18703; 22.85000;    -0.19290;1.00000
 70.08723; 23.30000;    -0.19439;1.00000
 70.98737; 23.75000;    -0.19374;1.00000
 71.88737; 24.20000;    -0.19466;1.00000
 72.78748; 24.65000;    -0.19383;1.00000
 73.68762; 25.10000;    -0.19438;1.00000
 74.58779; 25.55000;    -0.19522;1.00000
 75.48792; 26.00000;    -0.19531;1.00000
 76.38803; 26.45000;    -0.19457;1.00000
 77.28794; 26.90000;    -0.19484;1.00000
 78.18787; 27.35000;    -0.19568;1.00000
 79.08755; 27.80000;    -0.19521;1.00000
 79.98749; 28.25000;    -0.19549;1.00000
 80.88784; 28.70000;    -0.19614;1.00000
 81.78815; 29.15000;    -0.19623;1.00000
 82.68846; 29.60000;    -0.19484;1.00000
 83.58872; 30.05000;    -0.19614;1.00000
 84.48892; 30.50000;    -0.19697;1.00000
 85.38909; 30.95000;    -0.19586;1.00000
 86.28899; 31.40000;    -0.19670;1.00000
 87.18901; 31.85000;    -0.19827;1.00000
 88.08917; 32.30000;    -0.19743;1.00000
 88.98927; 32.75000;    -0.19707;1.00000
 89.88938; 33.20000;    -0.19808;1.00000
 90.78951; 33.65000;    -0.19725;1.00000
 91.68982; 34.10000;    -0.19743;1.00000
 92.58983; 34.55000;    -0.19799;1.00000
 93.48976; 35.00000;    -0.19808;1.00000
 94.38984; 35.45000;    -0.19799;1.00000
 95.28990; 35.90000;    -0.19790;1.00000
 96.18980; 36.35000;    -0.19790;1.00000
 97.08996; 36.80000;    -0.19762;1.00000
 97.99009; 37.25000;    -0.19854;1.00000
 98.89028; 37.70000;    -0.19854;1.00000
 99.79066; 38.15000;    -0.19901;1.00000
100.691; 38.60000;    -0.19845;1.00000
101.591; 39.05000;    -0.19993;1.00000
102.491; 39.50000;    -0.19928;1.00000
103.39; 39.95000;    -0.19993;1.00000
104.29; 40.40000;    -0.19956;1.00000
105.19; 40.85000;    -0.19808;1.00000
106.091; 41.30000;    -0.19892;1.00000
106.991; 41.75000;    -0.19993;1.00000
107.891; 42.20000;    -0.19827;1.00000
108.791; 42.65000;    -0.19919;1.00000
109.691; 43.10000;    -0.19947;1.00000
110.591; 43.55000;    -0.19947;1.00000
111.491; 44.00000;    -0.19901;1.00000
112.391; 44.45000;    -0.19901;1.00000
113.291; 44.90000;    -0.19762;1.00000
114.191; 45.35000;    -0.19817;1.00000
115.091; 45.80000;    -0.19947;1.00000
115.991; 46.25000;    -0.19864;1.00000
116.891; 46.70000;    -0.19919;1.00000
117.791; 47.15000;    -0.19891;1.00000
118.691; 47.60000;    -0.19799;1.00000
119.591; 48.05000;    -0.19817;1.00000
120.491; 48.50000;    -0.19707;1.00000
121.391; 48.95000;    -0.19744;1.00000
122.291; 49.40000;    -0.19716;1.00000
123.191; 49.85000;    -0.19651;1.00000
124.091; 50.30000;    -0.19707;1.00000
124.991; 50.75000;    -0.19485;1.00000
125.891; 51.20000;    -0.19596;1.00000
126.791; 51.65000;    -0.19448;1.00000
127.691; 52.10000;    -0.19438;1.00000
128.591; 52.55000;    -0.19364;1.00000
129.491; 53.00000;    -0.19364;1.00000
130.391; 53.45000;    -0.19179;1.00000
131.291; 53.90000;    -0.19078;1.00000
132.191; 54.35000;    -0.18911;1.00000
133.091; 54.80000;    -0.18745;1.00000
133.992; 55.25000;    -0.18726;1.00000
134.891; 55.70000;    -0.18541;1.00000
135.791; 56.15000;    -0.18393;1.00000
136.691; 56.60000;    -0.18060;1.00000
137.591; 57.05000;    -0.17949;1.00000
138.491; 57.50000;    -0.17718;1.00000
139.391; 57.95000;    -0.17533;1.00000
140.291; 58.40000;    -0.17191;1.00000
141.191; 58.85000;    -0.16803;1.00000
142.091; 59.30000;    -0.16498;1.00000
142.991; 59.75000;    -0.15998;1.00000
143.891; 60.20000;    -0.15684;1.00000
144.791; 60.65000;    -0.14972;1.00000
145.691; 61.10000;    -0.14380;1.00000
146.591; 61.55000;    -0.13769;1.00000
147.491; 62.00000;    -0.13150;1.00000
148.391; 62.45000;    -0.12401;1.00000
149.291; 62.90000;    -0.11430;1.00000
150.191; 63.35000;    -0.10570;1.00000
151.091; 63.80000;-9.4692e-002;1.00000
151.991; 64.25000;-8.1837e-002;1.00000
152.891; 64.70000;-6.9356e-002;1.00000
153.791; 65.15000;-5.2985e-002;1.00000
154.691; 65.60000;-3.5878e-002;1.00000
155.591; 66.05000;-1.7011e-002;1.00000
156.491; 66.50000; 4.5366e-003;1.00000
157.391; 66.95000; 2.9505e-002;1.00000
158.291; 67.40000; 5.6786e-002;1.00000
159.192; 67.85000; 8.8228e-002;1.00000
160.092; 68.30000;     0.12374;1.00000
160.993; 68.75000;     0.16175;1.00000
161.893; 69.20000;     0.20687;1.00000
162.793; 69.65000;     0.25959;1.00000
163.694; 70.10000;     0.31868;1.00000
164.594; 70.55000;     0.38462;1.00000
165.494; 71.00000;     0.45879;1.00000
166.394; 71.45000;     0.54294;1.00000
167.295; 71.90000;     0.64198;1.00000
168.195; 72.35000;     0.75212;1.00000
169.095; 72.80000;     0.89925;1.00000
169.995; 73.25000;     1.08347;1.00000
170.895; 73.70000;     1.28396;1.00000
171.795; 74.15000;     1.46984;1.00000
172.695; 74.60000;     1.61263;1.00000
173.595; 75.05000;     1.69031;1.00000
174.495; 75.50000;     1.69058;1.00000
175.395; 75.95000;     1.62483;1.00000
176.295; 76.40000;     1.50970;1.00000
177.195; 76.85000;     1.36442;1.00000
178.095; 77.30000;     1.20850;1.00000
178.995; 77.75000;     1.05647;1.00000
179.895; 78.20000;     0.91710;1.00000
180.795; 78.65000;     0.79152;1.00000
181.695; 79.10000;     0.68055;1.00000
182.595; 79.55000;     0.58428;1.00000
183.495; 80.00000;     0.49892;1.00000
184.394; 80.45000;     0.42706;1.00000
185.295; 80.90000;     0.36178;1.00000
186.195; 81.35000;     0.30657;1.00000
187.095; 81.80000;     0.25719;1.00000
187.995; 82.25000;     0.21021;1.00000
188.895; 82.70000;     0.17127;1.00000
189.795; 83.15000;     0.13641;1.00000
190.695; 83.60000;     0.10478;1.00000
191.594; 84.05000; 7.6946e-002;1.00000
192.495; 84.50000; 5.0960e-002;1.00000
193.395; 84.95000; 2.9227e-002;1.00000
194.295; 85.40000; 6.6636e-003;1.00000
195.195; 85.85000;-1.2481e-002;1.00000
196.095; 86.30000;-2.9587e-002;1.00000
196.995; 86.75000;-4.4940e-002;1.00000
197.895; 87.20000;-5.8163e-002;1.00000
198.794; 87.65000;-7.1295e-002;1.00000
199.694; 88.10000;-8.1836e-002;1.00000
200.594; 88.55000;-9.2102e-002;1.00000
201.495; 89.00000;-9.9040e-002;1.00000
202.395; 89.45000;    -0.10616;1.00000
203.294; 89.90000;    -0.11199;1.00000
204.194; 90.35000;    -0.11716;1.00000
205.095; 90.80000;    -0.12142;1.00000
205.995; 91.25000;    -0.12577;1.00000
206.895; 91.70000;    -0.12845;1.00000
207.795; 92.15000;    -0.13400;1.00000
208.695; 92.60000;    -0.13492;1.00000
209.595; 93.05000;    -0.13686;1.00000
210.495; 93.50000;    -0.12438;1.00000
211.395; 93.95000;    -0.12364;1.00000
212.295; 94.40000;    -0.12392;1.00000
213.195; 94.85000;    -0.12234;1.00000
214.095; 95.30000;    -0.12345;1.00000
214.995; 95.75000;    -0.12188;1.00000
215.895; 96.20000;    -0.12271;1.00000
216.795; 96.65000;    -0.12123;1.00000
217.695; 97.10000;    -0.12105;1.00000
218.595; 97.55000;    -0.12049;1.00000
219.495; 98.00000;    -0.11975;1.00000
220.395; 98.45000;    -0.11966;1.00000
221.295; 98.90000;    -0.11938;1.00000
222.195; 99.35000;    -0.11827;1.00000
223.095; 99.80000;    -0.11994;1.00000
223.995;100.25;    -0.11874;1.00000
224.895;100.7;    -0.11689;1.00000
225.795;101.15;    -0.11754;1.00000
226.695;101.6;    -0.11689;1.00000
227.595;102.05;    -0.11624;1.00000
228.495;102.5;    -0.11605;1.00000
229.395;102.95;    -0.11596;1.00000
230.295;103.4;    -0.11605;1.00000
231.195;103.85;    -0.11504;1.00000
232.095;104.3;    -0.11532;1.00000
232.995;104.75;    -0.11310;1.00000
233.895;105.2;    -0.11374;1.00000
234.795;105.65;    -0.11226;1.00000
235.695;106.1;    -0.11115;1.00000
236.595;106.55;    -0.11162;1.00000
237.495;107;    -0.10903;1.00000
238.395;107.45;    -0.10940;1.00000
239.295;107.9;    -0.10829;1.00000
240.195;108.35;    -0.10662;1.00000
241.095;108.8;    -0.10598;1.00000
241.995;109.25;    -0.10496;1.00000
242.895;109.7;    -0.10450;1.00000
243.796;110.15;    -0.10301;1.00000
244.696;110.6;    -0.10144;1.00000
245.416;110.96;    -0.10033;1.00000

File: q-4.txt
#EXPORTTYPE:DATA SINGLE
#FTYPE:ANSI
#IDENTITY:001926
#DECIMAL:POINT
#SEPARATOR:SEMICOLON
#DATE/TIME:15.12.2016 08:08
#TEMPCAL:TCALZERO.TMX
#SENSITIVITY:SENSZERO.EXX
#REMARK:
#SAMPLE:ÂÊ-36
#SAMPLE MASS /mg:8.16
#MATERIAL:íåò
#REFERENCE:
#REFERENCE MASS /mg:0
#TYPE OF CRUCIBLE:Pan Al, closed
#SAMPLE CRUCIBLE MASS /mg:0
#REFERENCE CRUCIBLE MASS /mg:0
#M.RANGE /µV:5000
#TAU-R:---
#CORR. CODE:020
#EXO:+1
#RANGE:-10°C/4,0(K/min)/270°C
#SEGMENT:S2/3
#SEG. 2:-10°C/4,0(K/min)/270°C

##Temp./°C;Time/min;DSC/(uV/mg);Sensit./(uV/mW)
 31.28046;11.97300;    -0.37331;1.00000
 32.24983;12.22300;    -0.37560;1.00000
 33.22360;12.47300;    -0.37879;1.00000
 34.20196;12.72300;    -0.38243;1.00000
 35.18460;12.97300;    -0.38530;1.00000
 36.16982;13.22300;    -0.38634;1.00000
 37.15714;13.47300;    -0.38999;1.00000
 38.14696;13.72300;    -0.39026;1.00000
 39.13897;13.97300;    -0.39277;1.00000
 40.13246;14.22300;    -0.39456;1.00000
 41.12729;14.47300;    -0.39663;1.00000
 42.12348;14.72300;    -0.39777;1.00000
 43.12090;14.97300;    -0.39952;1.00000
 44.11904;15.22300;    -0.39902;1.00000
 45.11759;15.47300;    -0.40094;1.00000
 46.11670;15.72300;    -0.40163;1.00000
 47.11604;15.97300;    -0.40301;1.00000
 48.11579;16.22300;    -0.40445;1.00000
 49.11630;16.47300;    -0.40454;1.00000
 50.11675;16.72300;    -0.40511;1.00000
 51.11714;16.97300;    -0.40540;1.00000
 52.11781;17.22300;    -0.40612;1.00000
 53.11847;17.47300;    -0.40568;1.00000
 54.11930;17.72300;    -0.40654;1.00000
 55.12014;17.97300;    -0.40604;1.00000
 56.12110;18.22300;    -0.40782;1.00000
 57.12210;18.47300;    -0.40755;1.00000
 58.12302;18.72300;    -0.40757;1.00000
 59.12381;18.97300;    -0.40723;1.00000
 60.12434;19.22300;    -0.40875;1.00000
 61.12524;19.47300;    -0.40791;1.00000
 62.12637;19.72300;    -0.40936;1.00000
 63.12716;19.97300;    -0.40991;1.00000
 64.12757;20.22300;    -0.40980;1.00000
 65.12859;20.47300;    -0.41026;1.00000
 66.12957;20.72300;    -0.41072;1.00000
 67.13028;20.97300;    -0.41093;1.00000
 68.13110;21.22300;    -0.41122;1.00000
 69.13145;21.47300;    -0.41123;1.00000
 70.13159;21.72300;    -0.41233;1.00000
 71.13210;21.97300;    -0.41259;1.00000
 72.13233;22.22300;    -0.41325;1.00000
 73.13232;22.47300;    -0.41243;1.00000
 74.13271;22.72300;    -0.41390;1.00000
 75.13310;22.97300;    -0.41449;1.00000
 76.13304;23.22300;    -0.41513;1.00000
 77.13351;23.47300;    -0.41486;1.00000
 78.13396;23.72300;    -0.41800;1.00000
 79.13439;23.97300;    -0.41680;1.00000
 80.13492;24.22300;    -0.41804;1.00000
 81.13518;24.47300;    -0.41817;1.00000
 82.13512;24.72300;    -0.41748;1.00000
 83.13557;24.97300;    -0.41832;1.00000
 84.13624;25.22300;    -0.41906;1.00000
 85.13641;25.47300;    -0.42047;1.00000
 86.13688;25.72300;    -0.41973;1.00000
 87.13729;25.97300;    -0.42018;1.00000
 88.13755;26.22300;    -0.42008;1.00000
 89.13781;26.47300;    -0.42168;1.00000
 90.13800;26.72300;    -0.42046;1.00000
 91.13806;26.97300;    -0.42125;1.00000
 92.13806;27.22300;    -0.42241;1.00000
 93.13836;27.47300;    -0.42299;1.00000
 94.13871;27.72300;    -0.42320;1.00000
 95.13882;27.97300;    -0.42334;1.00000
 96.13906;28.22300;    -0.42466;1.00000
 97.13920;28.47300;    -0.42442;1.00000
 98.13912;28.72300;    -0.42512;1.00000
 99.13914;28.97300;    -0.42524;1.00000
100.139;29.22300;    -0.42676;1.00000
101.139;29.47300;    -0.42732;1.00000
102.14;29.72300;    -0.42720;1.00000
103.139;29.97300;    -0.42810;1.00000
104.14;30.22300;    -0.42772;1.00000
105.14;30.47300;    -0.42821;1.00000
106.14;30.72300;    -0.42830;1.00000
107.14;30.97300;    -0.42765;1.00000
108.14;31.22300;    -0.42831;1.00000
109.14;31.47300;    -0.42974;1.00000
110.14;31.72300;    -0.43031;1.00000
111.14;31.97300;    -0.42971;1.00000
112.141;32.22300;    -0.43086;1.00000
113.14;32.47300;    -0.42982;1.00000
114.14;32.72300;    -0.43096;1.00000
115.141;32.97300;    -0.42992;1.00000
116.141;33.22300;    -0.42972;1.00000
117.141;33.47300;    -0.43142;1.00000
118.141;33.72300;    -0.43168;1.00000
119.141;33.97300;    -0.43056;1.00000
120.142;34.22300;    -0.43132;1.00000
121.142;34.47300;    -0.43131;1.00000
122.141;34.72300;    -0.43158;1.00000
123.141;34.97300;    -0.43030;1.00000
124.141;35.22300;    -0.43093;1.00000
125.142;35.47300;    -0.43017;1.00000
126.142;35.72300;    -0.42902;1.00000
127.141;35.97300;    -0.42888;1.00000
128.141;36.22300;    -0.42866;1.00000
129.141;36.47300;    -0.42756;1.00000
130.141;36.72300;    -0.42749;1.00000
131.142;36.97300;    -0.42482;1.00000
132.141;37.22300;    -0.42514;1.00000
133.141;37.47300;    -0.42430;1.00000
134.142;37.72300;    -0.42316;1.00000
135.142;37.97300;    -0.42224;1.00000
136.142;38.22300;    -0.42019;1.00000
137.142;38.47300;    -0.41935;1.00000
138.142;38.72300;    -0.41696;1.00000
139.142;38.97300;    -0.41423;1.00000
140.142;39.22300;    -0.41269;1.00000
141.142;39.47300;    -0.41149;1.00000
142.142;39.72300;    -0.40893;1.00000
143.142;39.97300;    -0.40501;1.00000
144.142;40.22300;    -0.40148;1.00000
145.141;40.47300;    -0.39690;1.00000
146.142;40.72300;    -0.39500;1.00000
147.142;40.97300;    -0.38811;1.00000
148.142;41.22300;    -0.38335;1.00000
149.142;41.47300;    -0.37470;1.00000
150.141;41.72300;    -0.36921;1.00000
151.142;41.97300;    -0.36202;1.00000
152.142;42.22300;    -0.35320;1.00000
153.143;42.47300;    -0.34362;1.00000
154.143;42.72300;    -0.33202;1.00000
155.143;42.97300;    -0.32077;1.00000
156.143;43.22300;    -0.30747;1.00000
157.143;43.47300;    -0.29173;1.00000
158.143;43.72300;    -0.27274;1.00000
159.143;43.97300;    -0.25255;1.00000
160.143;44.22300;    -0.23078;1.00000
161.143;44.47300;    -0.20350;1.00000
162.143;44.72300;    -0.17266;1.00000
163.144;44.97300;    -0.13892;1.00000
164.144;45.22300;-9.9716e-002;1.00000
165.145;45.47300;-5.4836e-002;1.00000
166.145;45.72300;-3.6294e-003;1.00000
167.145;45.97300; 5.7446e-002;1.00000
168.145;46.22300;     0.12390;1.00000
169.146;46.47300;     0.20411;1.00000
170.145;46.72300;     0.29421;1.00000
171.145;46.97300;     0.39902;1.00000
172.145;47.22300;     0.52046;1.00000
173.146;47.47300;     0.66157;1.00000
174.146;47.72300;     0.82340;1.00000
175.146;47.97300;     1.00908;1.00000
176.146;48.22300;     1.21738;1.00000
177.146;48.47300;     1.45715;1.00000
178.147;48.72300;     1.76548;1.00000
179.147;48.97300;     2.15893;1.00000
180.146;49.22300;     2.57290;1.00000
181.147;49.47300;     2.92075;1.00000
182.147;49.72300;     3.12971;1.00000
183.148;49.97300;     3.17176;1.00000
184.148;50.22300;     3.05803;1.00000
185.148;50.47300;     2.83205;1.00000
186.147;50.72300;     2.54600;1.00000
187.147;50.97300;     2.24476;1.00000
188.147;51.22300;     1.96334;1.00000
189.147;51.47300;     1.70257;1.00000
190.147;51.72300;     1.47417;1.00000
191.147;51.97300;     1.27176;1.00000
192.146;52.22300;     1.09903;1.00000
193.146;52.47300;     0.94296;1.00000
194.146;52.72300;     0.80956;1.00000
195.146;52.97300;     0.69073;1.00000
196.146;53.22300;     0.58514;1.00000
197.145;53.47300;     0.49038;1.00000
198.145;53.72300;     0.40616;1.00000
199.145;53.97300;     0.33089;1.00000
200.146;54.22300;     0.26182;1.00000
201.145;54.47300;     0.20347;1.00000
202.145;54.72300;     0.14424;1.00000
203.145;54.97300; 9.3886e-002;1.00000
204.146;55.22300; 4.9736e-002;1.00000
205.146;55.47300; 6.7859e-003;1.00000
206.146;55.72300;-3.1643e-002;1.00000
207.146;55.97300;-6.8885e-002;1.00000
208.145;56.22300;    -0.10605;1.00000
209.146;56.47300;    -0.14656;1.00000
210.146;56.72300;    -0.17065;1.00000
211.147;56.97300;    -0.16193;1.00000
212.148;57.22300;    -0.17804;1.00000
213.147;57.47300;    -0.19649;1.00000
214.147;57.72300;    -0.21154;1.00000
215.147;57.97300;    -0.22482;1.00000
216.147;58.22300;    -0.23666;1.00000
217.148;58.47300;    -0.24666;1.00000
218.147;58.72300;    -0.25367;1.00000
219.147;58.97300;    -0.25920;1.00000
220.147;59.22300;    -0.26488;1.00000
221.147;59.47300;    -0.26806;1.00000
222.147;59.72300;    -0.27255;1.00000
223.147;59.97300;    -0.27235;1.00000
224.147;60.22300;    -0.27359;1.00000
225.146;60.47300;    -0.27586;1.00000
226.147;60.72300;    -0.27796;1.00000
227.147;60.97300;    -0.27686;1.00000
228.147;61.22300;    -0.27572;1.00000
229.147;61.47300;    -0.27551;1.00000
230.147;61.72300;    -0.27358;1.00000
231.147;61.97300;    -0.27387;1.00000
232.147;62.22300;    -0.27262;1.00000
233.147;62.47300;    -0.27407;1.00000
234.147;62.72300;    -0.26983;1.00000
235.147;62.97300;    -0.27275;1.00000
236.148;63.22300;    -0.27093;1.00000
237.148;63.47300;    -0.26794;1.00000
238.147;63.72300;    -0.26694;1.00000
239.147;63.97300;    -0.26655;1.00000
240.147;64.22300;    -0.26478;1.00000
241.148;64.47300;    -0.26339;1.00000
242.148;64.72300;    -0.26013;1.00000