Folder: PeaksSeparation.jl/src/data/kinetics/multipeaks/q20

Note: README.md
# PeaksSeparation

[![Build Status](https://github.com/Manarom/PeaksSeparation.jl/actions/workflows/CI.yml/badge.svg?branch=main)](https://github.com/Manarom/PeaksSeparation.jl/actions/workflows/CI.yml?query=branch%3Amain)

Small package for peaks separation

<p float="left">
  <img src="./src/data/kinetics/peaks.png" width="320"/>
</p>

# Quick start:
Clone this repository to your local machine in `project_folder` (any name)

In julia REPL run:
```julia
  import Pkg
  cd(project_folder) # sets working folder to project_folder
  Pkg.activate(".")
  Pkg.instantiate() # to install all necessary dependencies
  include(".\\src\\PeaksSeparation.jl")
  using .PeaksSeparation
  (sol,p) = PeaksSeparation.fit_peaks(x,y,N=5) # fits five peaks to y(x) curve
  p[0] # gives baseline object
  p[1] # first peak etc
  using Plots
  plot(p)  # plots peaks
  PeaksSeparation.fit_peaks!(p) # to perform additional fitting
```
Pluto [notebook](https://github.com/Manarom/PeaksSeparation.jl/blob/main/src/dsc_peaks.jl) is also available

File: peak_0.txt
#EXPORTTYPE:DATA SINGLE
#FTYPE:ANSI
#IDENTITY:005924
#DECIMAL:POINT
#SEPARATOR:SEMICOLON
#MTYPE:DSC
#PROJECT:
#DATE/TIME:22.07.2025 13:59
#CORR. FILE:005923_bline_Al2O3_900_20_N2_20_air_20.ngb-bs1
#TEMPCAL:TCALZERO.TCX
#SENSITIVITY:SENSZERO.EXX
#LABORATORY:13
#REMARK:
#SAMPLE:3
#SAMPLE MASS /mg:11.02
#REFERENCE:
#REFERENCE MASS /mg:0
#TYPE OF CRUCIBLE:DSC/TG pan Al2O3
#SAMPLE CRUCIBLE MASS /mg:0
#REFERENCE CRUCIBLE MASS /mg:0
#DSC RANGE /�V:5000
#TG RANGE /mg:5000
#TAU-R:---
#CORR. CODE:020
#EXO:+1
#RANGE:35�C/00:00/35�C/20,0(K/min)/920�C/
#SEGMENT:S2/2
#SEG. 1:35�C/00:15/35�C
#SEG. 2:35�C/20,0(K/min)/920�C

##Temp./�C;Time/min;DSC/(uV/mg);Sensit./(uV/mW)
34.12771;15.2525;2.99531e-177;1.0
34.24319;15.5025;3.57562e-177;1.0
34.64471;15.7525;6.61659e-177;1.0
35.4829;16.0025;2.3875e-176;1.0
36.80038;16.2525;1.78709e-175;1.0
38.58895;16.5025;2.72546e-174;1.0
40.80919;16.7525;7.91991e-173;1.0
43.38457;17.0025;3.87517e-171;1.0
46.28457;17.2525;3.02578e-169;1.0
49.45557;17.5025;3.45244e-167;1.0
52.86838;17.7525;5.47217e-165;1.0
56.49052;18.0025;1.14052e-162;1.0
60.29871;18.2525;3.00162e-160;1.0
64.26776;18.5025;9.55917e-158;1.0
68.38686;18.7525;3.60704e-155;1.0
72.62505;19.0025;1.53495e-152;1.0
76.97686;19.2525;7.27773e-150;1.0
81.44562;19.5025;3.846e-147;1.0
86.04281;19.7525;2.29118e-144;1.0
90.75519;20.0025;1.50328e-141;1.0
95.54043;20.2525;1.02089e-138;1.0
100.409;20.5025;7.25075e-136;1.0
105.338;20.7525;5.21327e-133;1.0
110.304;21.0025;3.66861e-130;1.0
115.315;21.2525;2.54691e-127;1.0
120.365;21.5025;1.72844e-124;1.0
125.466;21.7525;1.1625e-121;1.0
130.616;22.0025;7.71176e-119;1.0
135.815;22.2525;5.03575e-116;1.0
141.059;22.5025;3.20901e-113;1.0
146.342;22.7525;1.98106e-110;1.0
151.657;23.0025;1.17129e-107;1.0
156.988;23.2525;6.50637e-105;1.0
162.33;23.5025;3.36946e-102;1.0
167.6811;23.7525;1.62467e-99;1.0
173.024;24.0025;7.14145e-97;1.0
178.4181;24.2525;3.05815e-94;1.0
183.813;24.5025;1.20534e-91;1.0
189.235;24.7525;4.49459e-89;1.0
194.669;25.0025;1.55895e-86;1.0
200.1089;25.2525;4.99803e-84;1.0
205.551;25.5025;1.47421e-81;1.0
210.995;25.7525;3.99336e-79;1.0
216.435;26.0025;9.89698e-77;1.0
221.884;26.2525;2.27226e-74;1.0
227.326;26.5025;4.75208e-72;1.0
232.769;26.7525;9.1239e-70;1.0
238.208;27.0025;1.60253e-67;1.0
243.645;27.2525;2.58074e-65;1.0
249.081;27.5025;3.80835e-63;1.0
254.513;27.7525;5.14033e-61;1.0
259.938;28.0025;6.32901e-59;1.0
265.359;28.2525;7.13126e-57;1.0
270.777;28.5025;7.36365e-55;1.0
276.19;28.7525;6.95378e-53;1.0
281.589;29.0025;5.96458e-51;1.0
286.9809;29.2525;4.67324e-49;1.0
292.374;29.5025;3.36989e-47;1.0
297.754;29.7525;2.21051e-45;1.0
303.122;30.0025;1.32153e-43;1.0
308.487;30.2525;7.25152e-42;1.0
313.8459;30.5025;3.64595e-40;1.0
319.199;30.7525;1.67916e-38;1.0
324.539;31.0025;7.05496e-37;1.0
329.881;31.2525;2.73204e-35;1.0
335.21;31.5025;9.65638e-34;1.0
340.529;31.7525;3.12436e-32;1.0
345.84;32.0025;9.26424e-31;1.0
351.143;32.2525;2.51894e-29;1.0
356.438;32.5025;6.28605e-28;1.0
361.728;32.7525;1.44145e-26;1.0
367.0099;33.0025;3.03344e-25;1.0
372.279;33.2525;5.84593e-24;1.0
377.548;33.5025;1.03983e-22;1.0
382.81;33.7525;1.70038e-21;1.0
388.065;34.0025;2.55717e-20;1.0
393.315;34.2525;3.54109e-19;1.0
398.549;34.5025;4.49151e-18;1.0
403.789;34.7525;5.27779e-17;1.0
409.015;35.0025;5.69048e-16;1.0
414.236;35.2525;5.65785e-15;1.0
419.451;35.5025;5.18622e-14;1.0
424.66;35.7525;4.38152e-13;1.0
429.864;36.0025;3.41489e-12;1.0
435.062;36.2525;2.45638e-11;1.0
440.256;36.5025;1.63086e-10;1.0
445.444;36.7525;9.99546e-10;1.0
450.626;37.0025;5.65416e-09;1.0
455.799;37.2525;2.95147e-08;1.0
460.966;37.5025;1.42296e-07;1.0
466.133;37.7525;6.34826e-07;1.0
471.29;38.0025;2.61513e-06;1.0
476.442;38.2525;9.96226e-06;1.0
481.587;38.5025;3.50767e-05;1.0
486.731;38.7525;0.000114353;1.0
491.871;39.0025;0.000345007;1.0
497.004;39.2525;0.000963062;1.0
502.138;39.5025;0.00249084;1.0
507.262;39.7525;0.00595882;1.0
512.391;40.0025;0.0132209;1.0
517.514;40.2525;0.0271609;1.0
522.643;40.5025;0.0517485;1.0
527.765;40.7525;0.0912907;1.0
532.896;41.0025;0.14938;1.0
538.037;41.2525;0.22664;1.0
543.189;41.5025;0.318723;1.0
548.349;41.7525;0.415175;1.0
553.515;42.0025;0.500756;1.0
558.684;42.2525;0.559065;1.0
563.854;42.5025;0.57766;1.0
569.049;42.7525;0.55217;1.0
574.26;43.0025;0.487862;1.0
579.422;43.2525;0.399344;1.0
584.76;43.5025;0.299323;1.0
590.127;43.7525;0.206131;1.0
595.457;44.0025;0.131032;1.0
600.648;44.2525;0.0778705;1.0
605.784;44.5025;0.0430924;1.0
610.83;44.7525;0.0223665;1.0
615.742;45.0025;0.0110044;1.0
620.639;45.2525;0.00506166;1.0
625.545;45.5025;0.00216808;1.0
630.459;45.7525;0.000864884;1.0
635.38;46.0025;0.000321201;1.0
640.308;46.2525;0.000111044;1.0
645.26;46.5025;3.55718e-05;1.0
650.236;46.7525;1.05525e-05;1.0
655.221;47.0025;2.90643e-06;1.0
660.22;47.2525;7.41997e-07;1.0
665.225;47.5025;1.75863e-07;1.0
670.231;47.7525;3.87532e-08;1.0
675.241;48.0025;7.93241e-09;1.0
680.257;48.2525;1.50648e-09;1.0
685.271;48.5025;2.66141e-10;1.0
690.28;48.7525;4.38135e-11;1.0
695.2828;49.0025;6.7204e-12;1.0
700.282;49.2525;9.60105e-13;1.0
705.281;49.5025;1.27598e-13;1.0
710.284;49.7525;1.57496e-14;1.0
715.28;50.0025;1.81382e-15;1.0
720.278;50.2525;1.94039e-16;1.0
725.282;50.5025;1.92634e-17;1.0
730.282;50.7525;1.78187e-18;1.0
735.28;51.0025;1.53444e-19;1.0
740.272;51.2525;1.23233e-20;1.0
745.26;51.5025;9.23144e-22;1.0
750.243;51.7525;6.45074e-23;1.0
755.23;52.0025;4.18631e-24;1.0
760.233;52.2525;2.5046e-25;1.0
765.25;52.5025;1.38232e-26;1.0
770.278;52.7525;7.0468e-28;1.0
775.306;53.0025;3.33762e-29;1.0
780.335;53.2525;1.46854e-30;1.0
785.353;53.5025;6.0496e-32;1.0
790.365;53.7525;2.32407e-33;1.0
795.363;54.0025;8.38745e-35;1.0
800.355;54.2525;2.82481e-36;1.0
805.337;54.5025;8.91907e-38;1.0
810.311;54.7525;2.63574e-39;1.0
815.273;55.0025;7.3108e-41;1.0
820.233;55.2525;1.89126e-42;1.0
825.19;55.5025;4.56581e-44;1.0
830.147;55.7525;1.0267e-45;1.0
835.104;56.0025;2.15107e-47;1.0
840.066;56.2525;4.17901e-49;1.0
845.0319;56.5025;7.53192e-51;1.0
849.994;56.7525;1.26832e-52;1.0
854.957;57.0025;1.98742e-54;1.0
859.918;57.2525;2.90304e-56;1.0
864.877;57.5025;3.9583e-58;1.0
869.837;57.7525;5.02088e-60;1.0
874.792;58.0025;5.95758e-62;1.0
879.749;58.2525;6.57088e-64;1.0
884.703;58.5025;6.76803e-66;1.0
889.657;58.7525;6.49004e-68;1.0
894.614;59.0025;5.78272e-70;1.0

File: peak_1.txt
#EXPORTTYPE:DATA SINGLE
#FTYPE:ANSI
#IDENTITY:005924
#DECIMAL:POINT
#SEPARATOR:SEMICOLON
#MTYPE:DSC
#PROJECT:
#DATE/TIME:22.07.2025 13:59
#CORR. FILE:005923_bline_Al2O3_900_20_N2_20_air_20.ngb-bs1
#TEMPCAL:TCALZERO.TCX
#SENSITIVITY:SENSZERO.EXX
#LABORATORY:13
#REMARK:
#SAMPLE:3
#SAMPLE MASS /mg:11.02
#REFERENCE:
#REFERENCE MASS /mg:0
#TYPE OF CRUCIBLE:DSC/TG pan Al2O3
#SAMPLE CRUCIBLE MASS /mg:0
#REFERENCE CRUCIBLE MASS /mg:0
#DSC RANGE /�V:5000
#TG RANGE /mg:5000
#TAU-R:---
#CORR. CODE:020
#EXO:+1
#RANGE:35�C/00:00/35�C/20,0(K/min)/920�C/
#SEGMENT:S2/2
#SEG. 1:35�C/00:15/35�C
#SEG. 2:35�C/20,0(K/min)/920�C

##Temp./�C;Time/min;DSC/(uV/mg);Sensit./(uV/mW)
34.12771;15.2525;2.70197e-121;1.0
34.24319;15.5025;3.0029e-121;1.0
34.64471;15.7525;4.3344e-121;1.0
35.4829;16.0025;9.3179e-121;1.0
36.80038;16.2525;3.09628e-120;1.0
38.58895;16.5025;1.57405e-119;1.0
40.80919;16.7525;1.17683e-118;1.0
43.38457;17.0025;1.20256e-117;1.0
46.28457;17.2525;1.62751e-116;1.0
49.45557;17.5025;2.76919e-115;1.0
52.86838;17.7525;5.75001e-114;1.0
56.49052;18.0025;1.41066e-112;1.0
60.29871;18.2525;3.9928e-111;1.0
64.26776;18.5025;1.27154e-109;1.0
68.38686;18.7525;4.50066e-108;1.0
72.62505;19.0025;1.71942e-106;1.0
76.97686;19.2525;7.04105e-105;1.0
81.44562;19.5025;3.09234e-103;1.0
86.04281;19.7525;1.46714e-101;1.0
90.75519;20.0025;7.41755e-100;1.0
95.54043;20.2525;3.85018e-98;1.0
100.409;20.5025;2.06528e-96;1.0
105.338;20.7525;1.12277e-94;1.0
110.304;21.0025;6.06161e-93;1.0
115.315;21.2525;3.2662e-91;1.0
120.365;21.5025;1.74699e-89;1.0
125.466;21.7525;9.35512e-88;1.0
130.616;22.0025;5.00197e-86;1.0
135.815;22.2525;2.66757e-84;1.0
141.059;22.5025;1.41174e-82;1.0
146.342;22.7525;7.38216e-81;1.0
151.657;23.0025;3.78792e-79;1.0
156.988;23.2525;1.88502e-77;1.0
162.33;23.5025;9.05465e-76;1.0
167.6811;23.7525;4.19511e-74;1.0
173.024;24.0025;1.85028e-72;1.0
178.4181;24.2525;8.09734e-71;1.0
183.813;24.5025;3.39408e-69;1.0
189.235;24.7525;1.38637e-67;1.0
194.669;25.0025;5.46057e-66;1.0
200.1089;25.2525;2.06584e-64;1.0
205.551;25.5025;7.48498e-63;1.0
210.995;25.7525;2.59437e-61;1.0
216.435;26.0025;8.5819e-60;1.0
221.884;26.2525;2.73077e-58;1.0
227.326;26.5025;8.26948e-57;1.0
232.769;26.7525;2.39511e-55;1.0
238.208;27.0025;6.61966e-54;1.0
243.645;27.2525;1.74838e-52;1.0
249.081;27.5025;4.41117e-51;1.0
254.513;27.7525;1.06187e-49;1.0
259.938;28.0025;2.43452e-48;1.0
265.359;28.2525;5.3269e-47;1.0
270.777;28.5025;1.11338e-45;1.0
276.19;28.7525;2.21985e-44;1.0
281.589;29.0025;4.20274e-43;1.0
286.9809;29.2525;7.58332e-42;1.0
292.374;29.5025;1.3106e-40;1.0
297.754;29.7525;2.1526e-39;1.0
303.122;30.0025;3.36399e-38;1.0
308.487;30.2525;5.0255e-37;1.0
313.8459;30.5025;7.16844e-36;1.0
319.199;30.7525;9.76077e-35;1.0
324.539;31.0025;1.26506e-33;1.0
329.881;31.2525;1.57165e-32;1.0
335.21;31.5025;1.85893e-31;1.0
340.529;31.7525;2.09742e-30;1.0
345.84;32.0025;2.25905e-29;1.0
351.143;32.2525;2.32346e-28;1.0
356.438;32.5025;2.28332e-27;1.0
361.728;32.7525;2.14562e-26;1.0
367.0099;33.0025;1.9261e-25;1.0
372.279;33.2525;1.64903e-24;1.0
377.548;33.5025;1.35411e-23;1.0
382.81;33.7525;1.06336e-22;1.0
388.065;34.0025;7.98723e-22;1.0
393.315;34.2525;5.74345e-21;1.0
398.549;34.5025;3.93772e-20;1.0
403.789;34.7525;2.59609e-19;1.0
409.015;35.0025;1.63377e-18;1.0
414.236;35.2525;9.85114e-18;1.0
419.451;35.5025;5.68981e-17;1.0
424.66;35.7525;3.14697e-16;1.0
429.864;36.0025;1.66787e-15;1.0
435.062;36.2525;8.47293e-15;1.0
440.256;36.5025;4.12576e-14;1.0
445.444;36.7525;1.92573e-13;1.0
450.626;37.0025;8.61379e-13;1.0
455.799;37.2525;3.69138e-12;1.0
460.966;37.5025;1.51657e-11;1.0
466.133;37.7525;5.98306e-11;1.0
471.29;38.0025;2.26195e-10;1.0
476.442;38.2525;8.20533e-10;1.0
481.587;38.5025;2.85422e-09;1.0
486.731;38.7525;9.53631e-09;1.0
491.871;39.0025;3.05865e-08;1.0
497.004;39.2525;9.41391e-08;1.0
502.138;39.5025;2.7845e-07;1.0
507.262;39.7525;7.89875e-07;1.0
512.391;40.0025;2.15555e-06;1.0
517.514;40.2525;5.64754e-06;1.0
522.643;40.5025;1.42358e-05;1.0
527.765;40.7525;3.44445e-05;1.0
532.896;41.0025;8.02194e-05;1.0
538.037;41.2525;0.000179805;1.0
543.189;41.5025;0.00038788;1.0
548.349;41.7525;0.00080468;1.0
553.515;42.0025;0.00160482;1.0
558.684;42.2525;0.00307543;1.0
563.854;42.5025;0.00566094;1.0
569.049;42.7525;0.0100338;1.0
574.26;43.0025;0.0171011;1.0
579.422;43.2525;0.0278497;1.0
584.76;43.5025;0.0442079;1.0
590.127;43.7525;0.0673541;1.0
595.457;44.0025;0.0980129;1.0
600.648;44.2525;0.135531;1.0
605.784;44.5025;0.179431;1.0
610.83;44.7525;0.227387;1.0
615.742;45.0025;0.275967;1.0
620.639;45.2525;0.322791;1.0
625.545;45.5025;0.364201;1.0
630.459;45.7525;0.396282;1.0
635.38;46.0025;0.415761;1.0
640.308;46.2525;0.42052;1.0
645.26;46.5025;0.409919;1.0
650.236;46.7525;0.384904;1.0
655.221;47.0025;0.348068;1.0
660.22;47.2525;0.303025;1.0
665.225;47.5025;0.253972;1.0
670.231;47.7525;0.204945;1.0
675.241;48.0025;0.159205;1.0
680.257;48.2525;0.119024;1.0
685.271;48.5025;0.0856745;1.0
690.28;48.7525;0.0593982;1.0
695.2828;49.0025;0.0396665;1.0
700.282;49.2525;0.0255151;1.0
705.281;49.5025;0.0158045;1.0
710.284;49.7525;0.00942322;1.0
715.28;50.0025;0.0054145;1.0
720.278;50.2525;0.00299483;1.0
725.282;50.5025;0.00159409;1.0
730.282;50.7525;0.000817429;1.0
735.28;51.0025;0.000403735;1.0
740.272;51.2525;0.000192172;1.0
745.26;51.5025;8.81595e-05;1.0
750.243;51.7525;3.8982e-05;1.0
755.23;52.0025;1.65916e-05;1.0
760.233;52.2525;6.78122e-06;1.0
765.25;52.5025;2.66164e-06;1.0
770.278;52.7525;1.00356e-06;1.0
775.306;53.0025;3.64174e-07;1.0
780.335;53.2525;1.2718e-07;1.0
785.353;53.5025;4.28587e-08;1.0
790.365;53.7525;1.39191e-08;1.0
795.363;54.0025;4.3678e-09;1.0
800.355;54.2525;1.32137e-09;1.0
805.337;54.5025;3.86033e-10;1.0
810.311;54.7525;1.08852e-10;1.0
815.273;55.0025;2.96569e-11;1.0
820.233;55.2525;7.78968e-12;1.0
825.19;55.5025;1.97295e-12;1.0
830.147;55.7525;4.81522e-13;1.0
835.104;56.0025;1.13258e-13;1.0
840.066;56.2525;2.56267e-14;1.0
845.0319;56.5025;5.57887e-15;1.0
849.994;56.7525;1.17166e-15;1.0
854.957;57.0025;2.37023e-16;1.0
859.918;57.2525;4.62179e-17;1.0
864.877;57.5025;8.69145e-18;1.0
869.837;57.7525;1.57422e-18;1.0
874.792;58.0025;2.75216e-19;1.0
879.749;58.2525;4.63274e-20;1.0
884.703;58.5025;7.52243e-21;1.0
889.657;58.7525;1.1768e-21;1.0
894.614;59.0025;1.7723e-22;1.0

File: peak_2.txt
#EXPORTTYPE:DATA SINGLE
#FTYPE:ANSI
#IDENTITY:005924
#DECIMAL:POINT
#SEPARATOR:SEMICOLON
#MTYPE:DSC
#PROJECT:
#DATE/TIME:22.07.2025 13:59
#CORR. FILE:005923_bline_Al2O3_900_20_N2_20_air_20.ngb-bs1
#TEMPCAL:TCALZERO.TCX
#SENSITIVITY:SENSZERO.EXX
#LABORATORY:13
#REMARK:
#SAMPLE:3
#SAMPLE MASS /mg:11.02
#REFERENCE:
#REFERENCE MASS /mg:0
#TYPE OF CRUCIBLE:DSC/TG pan Al2O3
#SAMPLE CRUCIBLE MASS /mg:0
#REFERENCE CRUCIBLE MASS /mg:0
#DSC RANGE /�V:5000
#TG RANGE /mg:5000
#TAU-R:---
#CORR. CODE:020
#EXO:+1
#RANGE:35�C/00:00/35�C/20,0(K/min)/920�C/
#SEGMENT:S2/2
#SEG. 1:35�C/00:15/35�C
#SEG. 2:35�C/20,0(K/min)/920�C

##Temp./�C;Time/min;DSC/(uV/mg);Sensit./(uV/mW)
34.12771;15.2525;4.13261e-208;1.0
34.24319;15.5025;4.8277e-208;1.0
34.64471;15.7525;8.28713e-208;1.0
35.4829;16.0025;2.55768e-207;1.0
36.80038;16.2525;1.49963e-206;1.0
38.58895;16.5025;1.64625e-205;1.0
40.80919;16.7525;3.19492e-204;1.0
43.38457;17.0025;9.8479e-203;1.0
46.28457;17.2525;4.60622e-201;1.0
49.45557;17.5025;3.03012e-199;1.0
52.86838;17.7525;2.68501e-197;1.0
56.49052;18.0025;3.05751e-195;1.0
60.29871;18.2525;4.32256e-193;1.0
64.26776;18.5025;7.31489e-191;1.0
68.38686;18.7525;1.45604e-188;1.0
72.62505;19.0025;3.26579e-186;1.0
76.97686;19.2525;8.17333e-184;1.0
81.44562;19.5025;2.28559e-181;1.0
86.04281;19.7525;7.22288e-179;1.0
90.75519;20.0025;2.52903e-176;1.0
95.54043;20.2525;9.28492e-174;1.0
100.409;20.5025;3.61091e-171;1.0
105.338;20.7525;1.4453e-168;1.0
110.304;21.0025;5.77667e-166;1.0
115.315;21.2525;2.32347e-163;1.0
120.365;21.5025;9.32998e-161;1.0
125.466;21.7525;3.78986e-158;1.0
130.616;22.0025;1.55135e-155;1.0
135.815;22.2525;6.39129e-153;1.0
141.059;22.5025;2.63041e-150;1.0
146.342;22.7525;1.07469e-147;1.0
151.657;23.0025;4.31422e-145;1.0
156.988;23.2525;1.67185e-142;1.0
162.33;23.5025;6.2097e-140;1.0
167.6811;23.7525;2.20828e-137;1.0
173.024;24.0025;7.36938e-135;1.0
178.4181;24.2525;2.45958e-132;1.0
183.813;24.5025;7.77762e-130;1.0
189.235;24.7525;2.39325e-127;1.0
194.669;25.0025;7.05141e-125;1.0
200.1089;25.2525;1.97747e-122;1.0
205.551;25.5025;5.25454e-120;1.0
210.995;25.7525;1.32069e-117;1.0
216.435;26.0025;3.12817e-115;1.0
221.884;26.2525;7.06941e-113;1.0
227.326;26.5025;1.49895e-110;1.0
232.769;26.7525;3.00531e-108;1.0
238.208;27.0025;5.677e-106;1.0
243.645;27.2525;1.01265e-103;1.0
249.081;27.5025;1.70466e-101;1.0
254.513;27.7525;2.7028e-99;1.0
259.938;28.0025;4.02474e-97;1.0
265.359;28.2525;5.64696e-95;1.0
270.777;28.5025;7.47579e-93;1.0
276.19;28.7525;9.31734e-91;1.0
281.589;29.0025;1.08515e-88;1.0
286.9809;29.2525;1.18788e-86;1.0
292.374;29.5025;1.23212e-84;1.0
297.754;29.7525;1.19554e-82;1.0
303.122;30.0025;1.08717e-80;1.0
308.487;30.2525;9.33603e-79;1.0
313.8459;30.5025;7.55608e-77;1.0
319.199;30.7525;5.76102e-75;1.0
324.539;31.0025;4.11779e-73;1.0
329.881;31.2525;2.79154e-71;1.0
335.21;31.5025;1.77448e-69;1.0
340.529;31.7525;1.06103e-67;1.0
345.84;32.0025;5.97433e-66;1.0
351.143;32.2525;3.16937e-64;1.0
356.438;32.5025;1.58551e-62;1.0
361.728;32.7525;7.48901e-61;1.0
367.0099;33.0025;3.33414e-59;1.0
372.279;33.2525;1.39497e-57;1.0
377.548;33.5025;5.53845e-56;1.0
382.81;33.7525;2.07596e-54;1.0
388.065;34.0025;7.34811e-53;1.0
393.315;34.2525;2.45969e-51;1.0
398.549;34.5025;7.72913e-50;1.0
403.789;34.7525;2.31496e-48;1.0
409.015;35.0025;6.52097e-47;1.0
414.236;35.2525;1.73916e-45;1.0
419.451;35.5025;4.3893e-44;1.0
424.66;35.7525;1.04762e-42;1.0
429.864;36.0025;2.36735e-41;1.0
435.062;36.2525;5.06733e-40;1.0
440.256;36.5025;1.02735e-38;1.0
445.444;36.7525;1.97283e-37;1.0
450.626;37.0025;3.58617e-36;1.0
455.799;37.2525;6.16705e-35;1.0
460.966;37.5025;1.00445e-33;1.0
466.133;37.7525;1.55437e-32;1.0
471.29;38.0025;2.2759e-31;1.0
476.442;38.2525;3.16069e-30;1.0
481.587;38.5025;4.15754e-29;1.0
486.731;38.7525;5.19725e-28;1.0
491.871;39.0025;6.16676e-27;1.0
497.004;39.2525;6.93891e-26;1.0
502.138;39.5025;7.42749e-25;1.0
507.262;39.7525;7.52814e-24;1.0
512.391;40.0025;7.27469e-23;1.0
517.514;40.2525;6.67136e-22;1.0
522.643;40.5025;5.83458e-21;1.0
527.765;40.7525;4.8398e-20;1.0
532.896;41.0025;3.83329e-19;1.0
538.037;41.2525;2.89876e-18;1.0
543.189;41.5025;2.09364e-17;1.0
548.349;41.7525;1.44175e-16;1.0
553.515;42.0025;9.4594e-16;1.0
558.684;42.2525;5.90681e-15;1.0
563.854;42.5025;3.50676e-14;1.0
569.049;42.7525;1.99485e-13;1.0
574.26;43.0025;1.08365e-12;1.0
579.422;43.2525;5.50561e-12;1.0
584.76;43.5025;2.80439e-11;1.0
590.127;43.7525;1.36397e-10;1.0
595.457;44.0025;6.21703e-10;1.0
600.648;44.2525;2.58624e-09;1.0
605.784;44.5025;1.00759e-08;1.0
610.83;44.7525;3.65059e-08;1.0
615.742;45.0025;1.22021e-07;1.0
620.639;45.2525;3.8817e-07;1.0
625.545;45.5025;1.18242e-06;1.0
630.459;45.7525;3.44602e-06;1.0
635.38;46.0025;9.60725e-06;1.0
640.308;46.2525;2.56117e-05;1.0
645.26;46.5025;6.54973e-05;1.0
650.236;46.7525;0.000160512;1.0
655.221;47.0025;0.000375877;1.0
660.22;47.2525;0.000841432;1.0
665.225;47.5025;0.00179796;1.0
670.231;47.7525;0.00366365;1.0
675.241;48.0025;0.00712133;1.0
680.257;48.2525;0.0132078;1.0
685.271;48.5025;0.0233482;1.0
690.28;48.7525;0.0393238;1.0
695.2828;49.0025;0.063118;1.0
700.282;49.2525;0.0965744;1.0
705.281;49.5025;0.140907;1.0
710.284;49.7525;0.196096;1.0
715.28;50.0025;0.260127;1.0
720.278;50.2525;0.329127;1.0
725.282;50.5025;0.397182;1.0
730.282;50.7525;0.456998;1.0
735.28;51.0025;0.501413;1.0
740.272;51.2525;0.524627;1.0
745.26;51.5025;0.52353;1.0
750.243;51.7525;0.498343;1.0
755.23;52.0025;0.452461;1.0
760.233;52.2525;0.391627;1.0
765.25;52.5025;0.32303;1.0
770.278;52.7525;0.253859;1.0
775.306;53.0025;0.190136;1.0
780.335;53.2525;0.135721;1.0
785.353;53.5025;0.0924192;1.0
790.365;53.7525;0.0600189;1.0
795.363;54.0025;0.0372173;1.0
800.355;54.2525;0.0220198;1.0
805.337;54.5025;0.0124416;1.0
810.311;54.7525;0.00671282;1.0
815.273;55.0025;0.00346098;1.0
820.233;55.2525;0.00170337;1.0
825.19;55.5025;0.000800403;1.0
830.147;55.7525;0.000358958;1.0
835.104;56.0025;0.000153654;1.0
840.066;56.2525;6.27094e-05;1.0
845.0319;56.5025;2.44016e-05;1.0
849.994;56.7525;9.06823e-06;1.0
854.957;57.0025;3.2154e-06;1.0
859.918;57.2525;1.08829e-06;1.0
864.877;57.5025;3.51743e-07;1.0
869.837;57.7525;1.08465e-07;1.0
874.792;58.0025;3.19593e-08;1.0
879.749;58.2525;8.98263e-09;1.0
884.703;58.5025;2.41146e-09;1.0
889.657;58.7525;6.17801e-10;1.0
894.614;59.0025;1.50957e-10;1.0

File: peak_3.txt
#EXPORTTYPE:DATA SINGLE
#FTYPE:ANSI
#IDENTITY:005924
#DECIMAL:POINT
#SEPARATOR:SEMICOLON
#MTYPE:DSC
#PROJECT:
#DATE/TIME:22.07.2025 13:59
#CORR. FILE:005923_bline_Al2O3_900_20_N2_20_air_20.ngb-bs1
#TEMPCAL:TCALZERO.TCX
#SENSITIVITY:SENSZERO.EXX
#LABORATORY:13
#REMARK:
#SAMPLE:3
#SAMPLE MASS /mg:11.02
#REFERENCE:
#REFERENCE MASS /mg:0
#TYPE OF CRUCIBLE:DSC/TG pan Al2O3
#SAMPLE CRUCIBLE MASS /mg:0
#REFERENCE CRUCIBLE MASS /mg:0
#DSC RANGE /�V:5000
#TG RANGE /mg:5000
#TAU-R:---
#CORR. CODE:020
#EXO:+1
#RANGE:35�C/00:00/35�C/20,0(K/min)/920�C/
#SEGMENT:S2/2
#SEG. 1:35�C/00:15/35�C
#SEG. 2:35�C/20,0(K/min)/920�C

##Temp./�C;Time/min;DSC/(uV/mg);Sensit./(uV/mW)
34.12771;15.2525;1.84835e-11;1.0
34.24319;15.5025;1.86325e-11;1.0
34.64471;15.7525;1.91601e-11;1.0
35.4829;16.0025;2.03089e-11;1.0
36.80038;16.2525;2.22526e-11;1.0
38.58895;16.5025;2.51855e-11;1.0
40.80919;16.7525;2.93572e-11;1.0
43.38457;17.0025;3.50486e-11;1.0
46.28457;17.2525;4.27562e-11;1.0
49.45557;17.5025;5.3088e-11;1.0
52.86838;17.7525;6.69417e-11;1.0
56.49052;18.0025;8.55159e-11;1.0
60.29871;18.2525;1.10478e-10;1.0
64.26776;18.5025;1.44066e-10;1.0
68.38686;18.7525;1.89461e-10;1.0
72.62505;19.0025;2.50717e-10;1.0
76.97686;19.2525;3.33685e-10;1.0
81.44562;19.5025;4.46695e-10;1.0
86.04281;19.7525;6.01817e-10;1.0
90.75519;20.0025;8.15181e-10;1.0
95.54043;20.2525;1.10698e-09;1.0
100.409;20.5025;1.50785e-09;1.0
105.338;20.7525;2.05711e-09;1.0
110.304;21.0025;2.80646e-09;1.0
115.315;21.2525;3.83035e-09;1.0
120.365;21.5025;5.22779e-09;1.0
125.466;21.7525;7.13995e-09;1.0
130.616;22.0025;9.75629e-09;1.0
135.815;22.2525;1.3337e-08;1.0
141.059;22.5025;1.82327e-08;1.0
146.342;22.7525;2.49185e-08;1.0
151.657;23.0025;3.4028e-08;1.0
156.988;23.2525;4.63874e-08;1.0
162.33;23.5025;6.31029e-08;1.0
167.6811;23.7525;8.56567e-08;1.0
173.024;24.0025;1.159e-07;1.0
178.4181;24.2525;1.56839e-07;1.0
183.813;24.5025;2.11665e-07;1.0
189.235;24.7525;2.85284e-07;1.0
194.669;25.0025;3.83682e-07;1.0
200.1089;25.2525;5.14749e-07;1.0
205.551;25.5025;6.88732e-07;1.0
210.995;25.7525;9.18955e-07;1.0
216.435;26.0025;1.22249e-06;1.0
221.884;26.2525;1.62248e-06;1.0
227.326;26.5025;2.14646e-06;1.0
232.769;26.7525;2.8317e-06;1.0
238.208;27.0025;3.72455e-06;1.0
243.645;27.2525;4.88485e-06;1.0
249.081;27.5025;6.38801e-06;1.0
254.513;27.7525;8.32864e-06;1.0
259.938;28.0025;1.08246e-05;1.0
265.359;28.2525;1.40265e-05;1.0
270.777;28.5025;1.81225e-05;1.0
276.19;28.7525;2.33438e-05;1.0
281.589;29.0025;2.99666e-05;1.0
286.9809;29.2525;3.83485e-05;1.0
292.374;29.5025;4.89426e-05;1.0
297.754;29.7525;6.22532e-05;1.0
303.122;30.0025;7.89249e-05;1.0
308.487;30.2525;9.97741e-05;1.0
313.8459;30.5025;0.000125756;1.0
319.199;30.7525;0.000158027;1.0
324.539;31.0025;0.000197933;1.0
329.881;31.2525;0.000247261;1.0
335.21;31.5025;0.00030788;1.0
340.529;31.7525;0.000382179;1.0
345.84;32.0025;0.000472973;1.0
351.143;32.2525;0.000583582;1.0
356.438;32.5025;0.000717934;1.0
361.728;32.7525;0.000880667;1.0
367.0099;33.0025;0.00107707;1.0
372.279;33.2525;0.00131314;1.0
377.548;33.5025;0.00159677;1.0
382.81;33.7525;0.00193603;1.0
388.065;34.0025;0.00234061;1.0
393.315;34.2525;0.0028218;1.0
398.549;34.5025;0.00339105;1.0
403.789;34.7525;0.0040654;1.0
409.015;35.0025;0.00485874;1.0
414.236;35.2525;0.00579096;1.0
419.451;35.5025;0.00688289;1.0
424.66;35.7525;0.00815775;1.0
429.864;36.0025;0.00964219;1.0
435.062;36.2525;0.0113657;1.0
440.256;36.5025;0.0133608;1.0
445.444;36.7525;0.0156632;1.0
450.626;37.0025;0.0183117;1.0
455.799;37.2525;0.0213483;1.0
460.966;37.5025;0.0248205;1.0
466.133;37.7525;0.0287834;1.0
471.29;38.0025;0.033286;1.0
476.442;38.2525;0.0383907;1.0
481.587;38.5025;0.0441573;1.0
486.731;38.7525;0.0506606;1.0
491.871;39.0025;0.0579693;1.0
497.004;39.2525;0.0661555;1.0
502.138;39.5025;0.0753092;1.0
507.262;39.7525;0.0854934;1.0
512.391;40.0025;0.0968242;1.0
517.514;40.2525;0.109368;1.0
522.643;40.5025;0.123246;1.0
527.765;40.7525;0.138514;1.0
532.896;41.0025;0.155317;1.0
538.037;41.2525;0.173759;1.0
543.189;41.5025;0.193947;1.0
548.349;41.7525;0.215969;1.0
553.515;42.0025;0.239911;1.0
558.684;42.2525;0.26585;1.0
563.854;42.5025;0.29385;1.0
569.049;42.7525;0.324121;1.0
574.26;43.0025;0.356697;1.0
579.422;43.2525;0.391193;1.0
584.76;43.5025;0.42924;1.0
590.127;43.7525;0.469926;1.0
595.457;44.0025;0.512759;1.0
600.648;44.2525;0.556776;1.0
605.784;44.5025;0.60252;1.0
610.83;44.7525;0.649531;1.0
615.742;45.0025;0.697192;1.0
620.639;45.2525;0.746472;1.0
625.545;45.5025;0.797517;1.0
630.459;45.7525;0.85018;1.0
635.38;46.0025;0.904323;1.0
640.308;46.2525;0.959771;1.0
645.26;46.5025;1.01655;1.0
650.236;46.7525;1.07445;1.0
655.221;47.0025;1.13308;1.0
660.22;47.2525;1.19226;1.0
665.225;47.5025;1.25162;1.0
670.231;47.7525;1.31081;1.0
675.241;48.0025;1.36957;1.0
680.257;48.2525;1.42763;1.0
685.271;48.5025;1.48456;1.0
690.28;48.7525;1.54001;1.0
695.2828;49.0025;1.59367;1.0
700.282;49.2525;1.64523;1.0
705.281;49.5025;1.69441;1.0
710.284;49.7525;1.74095;1.0
715.28;50.0025;1.78445;1.0
720.278;50.2525;1.82473;1.0
725.282;50.5025;1.86151;1.0
730.282;50.7525;1.89448;1.0
735.28;51.0025;1.92345;1.0
740.272;51.2525;1.9482;1.0
745.26;51.5025;1.96857;1.0
750.243;51.7525;1.98443;1.0
755.23;52.0025;1.9957;1.0
760.233;52.2525;2.0023;1.0
765.25;52.5025;2.00414;1.0
770.278;52.7525;2.00117;1.0
775.306;53.0025;1.9934;1.0
780.335;53.2525;1.98088;1.0
785.353;53.5025;1.96375;1.0
790.365;53.7525;1.94213;1.0
795.363;54.0025;1.91624;1.0
800.355;54.2525;1.88624;1.0
805.337;54.5025;1.85239;1.0
810.311;54.7525;1.81491;1.0
815.273;55.0025;1.7741;1.0
820.233;55.2525;1.73017;1.0
825.19;55.5025;1.68341;1.0
830.147;55.7525;1.63408;1.0
835.104;56.0025;1.5825;1.0
840.066;56.2525;1.52891;1.0
845.0319;56.5025;1.47362;1.0
849.994;56.7525;1.41705;1.0
854.957;57.0025;1.35945;1.0
859.918;57.2525;1.30115;1.0
864.877;57.5025;1.24247;1.0
869.837;57.7525;1.18365;1.0
874.792;58.0025;1.12503;1.0
879.749;58.2525;1.0668;1.0
884.703;58.5025;1.00925;1.0
889.657;58.7525;0.952567;1.0
894.614;59.0025;0.896945;1.0