Folder: PeaksSeparation.jl/src/data/kinetics/multipeaks/q5

Note: README.md
# PeaksSeparation

[![Build Status](https://github.com/Manarom/PeaksSeparation.jl/actions/workflows/CI.yml/badge.svg?branch=main)](https://github.com/Manarom/PeaksSeparation.jl/actions/workflows/CI.yml?query=branch%3Amain)

Small package for peaks separation

<p float="left">
  <img src="./src/data/kinetics/peaks.png" width="320"/>
</p>

# Quick start:
Clone this repository to your local machine in `project_folder` (any name)

In julia REPL run:
```julia
  import Pkg
  cd(project_folder) # sets working folder to project_folder
  Pkg.activate(".")
  Pkg.instantiate() # to install all necessary dependencies
  include(".\\src\\PeaksSeparation.jl")
  using .PeaksSeparation
  (sol,p) = PeaksSeparation.fit_peaks(x,y,N=5) # fits five peaks to y(x) curve
  p[0] # gives baseline object
  p[1] # first peak etc
  using Plots
  plot(p)  # plots peaks
  PeaksSeparation.fit_peaks!(p) # to perform additional fitting
```
Pluto [notebook](https://github.com/Manarom/PeaksSeparation.jl/blob/main/src/dsc_peaks.jl) is also available

File: peak_1.txt
#EXPORTTYPE:DATA SINGLE
#FILE:00592013__Al2O3_900_5_N2_20_air_20.ngb-ds1
#FTYPE:ANSI
#IDENTITY:005920
#DECIMAL:POINT
#SEPARATOR:SEMICOLON
#MTYPE:DSC
#PROJECT:
#DATE/TIME:21.07.2025 08:33
#CORR. FILE:005919_bline_Al2O3_900_5_N2_20_air_20.ngb-bs1
#TEMPCAL:TCALZERO.TCX
#SENSITIVITY:SENSZERO.EXX
#LABORATORY: 11
#OPERATOR:
#REMARK:
#SAMPLE:1
#SAMPLE MASS /mg:9.99
#MATERIAL:
#REFERENCE:
#REFERENCE MASS /mg:0
#TYPE OF CRUCIBLE:DSC/TG pan Al2O3
#SAMPLE CRUCIBLE MASS /mg:0
#REFERENCE CRUCIBLE MASS /mg:0
#DSC RANGE /V:5000
#TG RANGE /mg:5000
#TAU-R:---
#CORR. CODE:020
#EXO:+1
#RANGE:35C/00:00/35C/5,0(K/min)/920C/
#SEGMENT:S1-2/2
#SEG. 1:35C/00:15/35C
#SEG. 2:35C/5,0(K/min)/920C

##Temp./C;Time/min;DSC/(uV/mg);Sensit./(uV/mW);Segment
34.17636;0.25;3.53636e-102;1.0;1
34.17688;1.0;3.53804e-102;1.0;1
34.16876;1.75;3.51193e-102;1.0;1
34.16576;2.5;3.50234e-102;1.0;1
34.16288;3.25;3.49315e-102;1.0;1
34.16165;4.0;3.48923e-102;1.0;1
34.16759;4.75;3.50819e-102;1.0;1
34.15641;5.5;3.47259e-102;1.0;1
34.15641;6.25;3.47259e-102;1.0;1
34.15471;7.0;3.46721e-102;1.0;1
34.15988;7.75;3.4836e-102;1.0;1
34.15247;8.5;3.46014e-102;1.0;1
34.15082;9.25;3.45493e-102;1.0;1
34.15165;10.0;3.45755e-102;1.0;1
34.14282;10.75;3.42981e-102;1.0;1
34.13618;11.5;3.4091e-102;1.0;1
34.12518;12.25;3.37507e-102;1.0;1
34.12447;13.0;3.37288e-102;1.0;1
34.12024;13.75;3.35989e-102;1.0;1
34.10235;14.5;3.3055e-102;1.0;1
34.10516;15.25;3.31399e-102;1.0;2
34.42622;16.0;4.44129e-102;1.0;2
35.61708;16.75;1.31361e-101;1.0;2
37.54164;17.5;7.53812e-101;1.0;2
39.94421;18.25;6.61467e-100;1.0;2
42.69183;19.0;7.82979e-99;1.0;2
45.6928;19.75;1.14626e-97;1.0;2
48.88834;20.5;1.96216e-96;1.0;2
52.23305;21.25;3.76103e-95;1.0;2
55.68474;22.0;7.75953e-94;1.0;2
59.23476;22.75;1.70688e-92;1.0;2
62.86358;23.5;3.92917e-91;1.0;2
66.53528;24.25;9.16499e-90;1.0;2
70.24448;25.0;2.15453e-88;1.0;2
73.97395;25.75;5.02739e-87;1.0;2
77.71669;26.5;1.15715e-85;1.0;2
81.47146;27.25;2.62384e-84;1.0;2
85.24469;28.0;5.89072e-83;1.0;2
89.03755;28.75;1.3102e-81;1.0;2
92.84121;29.5;2.86533e-80;1.0;2
96.65528;30.25;6.15813e-79;1.0;2
100.482;31.0;1.30255e-77;1.0;2
104.318;31.75;2.70451e-76;1.0;2
108.15;32.5;5.45102e-75;1.0;2
111.973;33.25;1.06328e-73;1.0;2
115.8;34.0;2.02715e-72;1.0;2
119.615;34.75;3.73168e-71;1.0;2
123.434;35.5;6.71231e-70;1.0;2
127.259;36.25;1.18117e-68;1.0;2
131.096;37.0;2.04368e-67;1.0;2
134.935;37.75;3.45016e-66;1.0;2
138.773;38.5;5.67161e-65;1.0;2
142.619;39.25;9.12768e-64;1.0;2
146.477;40.0;1.44426e-62;1.0;2
150.3408;40.75;2.23337e-61;1.0;2
154.201;41.5;3.35619e-60;1.0;2
158.066;42.25;4.92318e-59;1.0;2
161.923;43.0;7.00197e-58;1.0;2
165.782;43.75;9.70035e-57;1.0;2
169.63;44.5;1.30034e-55;1.0;2
173.484;45.25;1.70388e-54;1.0;2
177.339;46.0;2.17629e-53;1.0;2
181.188;46.75;2.69595e-52;1.0;2
185.034;47.5;3.24655e-51;1.0;2
188.884;48.25;3.81655e-50;1.0;2
192.741;49.0;4.39056e-49;1.0;2
196.596;49.75;4.91391e-48;1.0;2
200.448;50.5;5.34353e-47;1.0;2
204.303;51.25;5.67403e-46;1.0;2
208.16;52.0;5.86978e-45;1.0;2
212.011;52.75;5.89442e-44;1.0;2
215.857;53.5;5.74828e-43;1.0;2
219.696;54.25;5.43834e-42;1.0;2
223.532;55.0;5.00337e-41;1.0;2
227.368;55.75;4.48378e-40;1.0;2
231.206;56.5;3.91848e-39;1.0;2
235.045;57.25;3.33644e-38;1.0;2
238.878;58.0;2.75927e-37;1.0;2
242.71;58.75;2.22249e-36;1.0;2
246.539;59.5;1.74007e-35;1.0;2
250.374;60.25;1.33227e-34;1.0;2
254.205;61.0;9.91419e-34;1.0;2
258.036;61.75;7.18479e-33;1.0;2
261.867;62.5;5.07561e-32;1.0;2
265.7;63.25;3.49461e-31;1.0;2
269.535;64.0;2.3478e-30;1.0;2
273.359;64.75;1.52774e-29;1.0;2
277.181;65.5;9.67714e-29;1.0;2
281.006;66.25;5.9801e-28;1.0;2
284.836;67.0;3.60953e-27;1.0;2
288.666;67.75;2.122e-26;1.0;2
292.485;68.5;1.20968e-25;1.0;2
296.307;69.25;6.72899e-25;1.0;2
300.129;70.0;3.64579e-24;1.0;2
303.947;70.75;1.92151e-23;1.0;2
307.755;71.5;9.82728e-23;1.0;2
311.568;72.25;4.90634e-22;1.0;2
315.373;73.0;2.38002e-21;1.0;2
319.1809;73.75;1.12634e-20;1.0;2
322.988;74.5;5.19262e-20;1.0;2
326.7946;75.25;2.3327e-19;1.0;2
330.599;76.0;1.02039e-18;1.0;2
334.409;76.75;4.35874e-18;1.0;2
338.201;77.5;1.80207e-17;1.0;2
342.001;78.25;7.28635e-17;1.0;2
345.801;79.0;2.87023e-16;1.0;2
349.596;79.75;1.10047e-15;1.0;2
353.392;80.5;4.11196e-15;1.0;2
357.19;81.25;1.49884e-14;1.0;2
360.985;82.0;5.3211e-14;1.0;2
364.776;82.75;1.83847e-13;1.0;2
368.565;83.5;6.18665e-13;1.0;2
372.3491;84.25;2.02665e-12;1.0;2
376.134;85.0;6.47374e-12;1.0;2
379.921;85.75;2.01668e-11;1.0;2
383.7;86.5;6.11011e-11;1.0;2
387.478;87.25;1.80483e-10;1.0;2
391.254;88.0;5.19328e-10;1.0;2
395.0354;88.75;1.45886e-09;1.0;2
398.817;89.5;3.99589e-09;1.0;2
402.599;90.25;1.06696e-08;1.0;2
406.379;91.0;2.77649e-08;1.0;2
410.16;91.75;7.0445e-08;1.0;2
413.935;92.5;1.74009e-07;1.0;2
417.706;93.25;4.18647e-07;1.0;2
421.478;94.0;9.82222e-07;1.0;2
425.248;94.75;2.24609e-06;1.0;2
429.019;95.5;5.00889e-06;1.0;2
432.795;96.25;1.09026e-05;1.0;2
436.573;97.0;2.31428e-05;1.0;2
440.3477;97.75;4.78617e-05;1.0;2
444.117;98.5;9.64206e-05;1.0;2
447.8979;99.25;0.000189758;1.0;2
451.676;100.0;0.00036394;1.0;2
455.4418;100.75;0.000679052;1.0;2
459.202;101.5;0.0012344;1.0;2
462.968;102.25;0.0021901;1.0;2
466.727;103.0;0.00378516;1.0;2
470.486;103.75;0.00637923;1.0;2
474.243;104.5;0.0104816;1.0;2
477.9978;105.25;0.0167896;1.0;2
481.753;106.0;0.0262293;1.0;2
485.507;106.75;0.0399551;1.0;2
489.266;107.5;0.0593862;1.0;2
493.024;108.25;0.0860662;1.0;2
496.782;109.0;0.121635;1.0;2
500.541;109.75;0.167661;1.0;2
504.301;110.5;0.225364;1.0;2
508.055;111.25;0.295281;1.0;2
511.798;112.0;0.377054;1.0;2
515.603;112.75;0.471224;1.0;2
519.459;113.5;0.575371;1.0;2
523.318;114.25;0.684243;1.0;2
527.4373;115.0;0.79954;1.0;2
531.691;115.75;0.909752;1.0;2
535.532;116.5;0.994341;1.0;2
539.218;117.25;1.05652;1.0;2
542.871;118.0;1.09551;1.0;2
546.514;118.75;1.10928;1.0;2
550.163;119.5;1.09696;1.0;2
553.823;120.25;1.05922;1.0;2
557.497;121.0;0.998406;1.0;2
561.172;121.75;0.918722;1.0;2
564.8499;122.5;0.825237;1.0;2
568.536;123.25;0.723412;1.0;2
572.223;124.0;0.618961;1.0;2
575.917;124.75;0.516739;1.0;2
579.631;125.5;0.420553;1.0;2
583.346;126.25;0.333956;1.0;2
587.052;127.0;0.25891;1.0;2
590.7589;127.75;0.195877;1.0;2
594.481;128.5;0.144426;1.0;2
598.207;129.25;0.103849;1.0;2
601.936;130.0;0.0728352;1.0;2
605.666;130.75;0.0498233;1.0;2
609.393;131.5;0.0332613;1.0;2
613.123;132.25;0.0216556;1.0;2
616.8482;133.0;0.0137627;1.0;2
620.572;133.75;0.00853406;1.0;2
624.294;134.5;0.00516508;1.0;2
628.015;135.25;0.00304992;1.0;2
631.726;136.0;0.00175963;1.0;2
635.431;136.75;0.000991802;1.0;2
639.138;137.5;0.000545247;1.0;2
642.848;138.25;0.000292355;1.0;2
646.558;139.0;0.000152979;1.0;2
650.261;139.75;7.82034e-05;1.0;2
653.958;140.5;3.90657e-05;1.0;2
657.646;141.25;1.90767e-05;1.0;2
661.33;142.0;9.10014e-06;1.0;2
665.017;142.75;4.23523e-06;1.0;2
668.703;143.5;1.92431e-06;1.0;2
672.376;144.25;8.55925e-07;1.0;2
676.039;145.0;3.7252e-07;1.0;2
679.697;145.75;1.58492e-07;1.0;2
683.346;146.5;6.59869e-08;1.0;2
686.986;147.25;2.68944e-08;1.0;2
690.618;148.0;1.07268e-08;1.0;2
694.256;148.75;4.17214e-09;1.0;2
697.916;149.5;1.57578e-09;1.0;2
701.601;150.25;5.77136e-10;1.0;2
705.291;151.0;2.06034e-10;1.0;2
708.999;151.75;7.14037e-11;1.0;2
712.7091;152.5;2.4141e-11;1.0;2
716.416;153.25;7.971e-12;1.0;2
720.121;154.0;2.56991e-12;1.0;2
723.827;154.75;8.083e-13;1.0;2
727.532;155.5;2.48138e-13;1.0;2
731.242;156.25;7.42212e-14;1.0;2
734.95;157.0;2.16773e-14;1.0;2
738.661;157.75;6.17148e-15;1.0;2
742.371;158.5;1.7154e-15;1.0;2
746.0747;159.25;4.66243e-16;1.0;2
749.774;160.0;1.23865e-16;1.0;2
753.474;160.75;3.21127e-17;1.0;2
757.179;161.5;8.10821e-18;1.0;2
760.88;162.25;2.00026e-18;1.0;2
764.587;163.0;4.80642e-19;1.0;2
768.295;163.75;1.12659e-19;1.0;2
772.008;164.5;2.57139e-20;1.0;2
775.722;165.25;5.72386e-21;1.0;2
779.436;166.0;1.24355e-21;1.0;2
783.14;166.75;2.64722e-22;1.0;2
786.842;167.5;5.50385e-23;1.0;2
790.548;168.25;1.11474e-23;1.0;2
794.255;169.0;2.20155e-24;1.0;2
797.966;169.75;4.23658e-25;1.0;2
801.672;170.5;7.97563e-26;1.0;2
805.379;171.25;1.46405e-26;1.0;2
809.08;172.0;2.62979e-27;1.0;2
812.779;172.75;4.61533e-28;1.0;2
816.475;173.5;7.91479e-29;1.0;2
820.177;174.25;1.32097e-29;1.0;2
823.877;175.0;2.15373e-30;1.0;2
827.58;175.75;3.42153e-31;1.0;2
831.283;176.5;5.3054e-32;1.0;2
834.987;177.25;8.02074e-33;1.0;2
838.691;178.0;1.18404e-33;1.0;2
842.396;178.75;1.70367e-34;1.0;2
846.101;179.5;2.39301e-35;1.0;2
849.801;180.25;3.28963e-36;1.0;2
853.5;181.0;4.41642e-37;1.0;2
857.203;181.75;5.77122e-38;1.0;2
860.904;182.5;7.36692e-39;1.0;2
864.607;183.25;9.17119e-40;1.0;2
868.312;184.0;1.11269e-40;1.0;2
872.0177;184.75;1.31695e-41;1.0;2
875.721;185.5;1.52358e-42;1.0;2
879.421;186.25;1.72212e-43;1.0;2
883.121;187.0;1.90064e-44;1.0;2
886.822;187.75;2.04691e-45;1.0;2
890.521;188.5;2.15214e-46;1.0;2
894.216;189.25;2.2147e-47;1.0;2
897.912;190.0;2.22259e-48;1.0;2
901.61;190.75;2.17438e-49;1.0;2
905.315;191.5;2.06695e-50;1.0;2
906.55;191.75;9.3815e-51;1.0;2

File: peak_2.txt
#EXPORTTYPE:DATA SINGLE
#FILE:00592013__Al2O3_900_5_N2_20_air_20.ngb-ds1
#FTYPE:ANSI
#IDENTITY:005920
#DECIMAL:POINT
#SEPARATOR:SEMICOLON
#MTYPE:DSC
#PROJECT:
#DATE/TIME:21.07.2025 08:33
#CORR. FILE:005919_bline_Al2O3_900_5_N2_20_air_20.ngb-bs1
#TEMPCAL:TCALZERO.TCX
#SENSITIVITY:SENSZERO.EXX
#LABORATORY: 11
#OPERATOR:
#REMARK:
#SAMPLE:1
#SAMPLE MASS /mg:9.99
#MATERIAL:
#REFERENCE:
#REFERENCE MASS /mg:0
#TYPE OF CRUCIBLE:DSC/TG pan Al2O3
#SAMPLE CRUCIBLE MASS /mg:0
#REFERENCE CRUCIBLE MASS /mg:0
#DSC RANGE /V:5000
#TG RANGE /mg:5000
#TAU-R:---
#CORR. CODE:020
#EXO:+1
#RANGE:35C/00:00/35C/5,0(K/min)/920C/
#SEGMENT:S1-2/2
#SEG. 1:35C/00:15/35C
#SEG. 2:35C/5,0(K/min)/920C

##Temp./C;Time/min;DSC/(uV/mg);Sensit./(uV/mW);Segment
34.17636;0.25;1.4841e-67;1.0;1
34.17688;1.0;1.48451e-67;1.0;1
34.16876;1.75;1.47812e-67;1.0;1
34.16576;2.5;1.47576e-67;1.0;1
34.16288;3.25;1.4735e-67;1.0;1
34.16165;4.0;1.47254e-67;1.0;1
34.16759;4.75;1.4772e-67;1.0;1
34.15641;5.5;1.46845e-67;1.0;1
34.15641;6.25;1.46845e-67;1.0;1
34.15471;7.0;1.46712e-67;1.0;1
34.15988;7.75;1.47116e-67;1.0;1
34.15247;8.5;1.46537e-67;1.0;1
34.15082;9.25;1.46409e-67;1.0;1
34.15165;10.0;1.46474e-67;1.0;1
34.14282;10.75;1.45788e-67;1.0;1
34.13618;11.5;1.45274e-67;1.0;1
34.12518;12.25;1.44427e-67;1.0;1
34.12447;13.0;1.44373e-67;1.0;1
34.12024;13.75;1.44049e-67;1.0;1
34.10235;14.5;1.42685e-67;1.0;1
34.10516;15.25;1.42899e-67;1.0;2
34.42622;16.0;1.69481e-67;1.0;2
35.61708;16.75;3.18851e-67;1.0;2
37.54164;17.5;8.83002e-67;1.0;2
39.94421;18.25;3.13431e-66;1.0;2
42.69183;19.0;1.32594e-65;1.0;2
45.6928;19.75;6.35671e-65;1.0;2
48.88834;20.5;3.343e-64;1.0;2
52.23305;21.25;1.88079e-63;1.0;2
55.68474;22.0;1.10631e-62;1.0;2
59.23476;22.75;6.76689e-62;1.0;2
62.86358;23.5;4.25775e-61;1.0;2
66.53528;24.25;2.70445e-60;1.0;2
70.24448;25.0;1.72875e-59;1.0;2
73.97395;25.75;1.10223e-58;1.0;2
77.71669;26.5;6.98409e-58;1.0;2
81.47146;27.25;4.39468e-57;1.0;2
85.24469;28.0;2.75437e-56;1.0;2
89.03755;28.75;1.72012e-55;1.0;2
92.84121;29.5;1.06564e-54;1.0;2
96.65528;30.25;6.54718e-54;1.0;2
100.482;31.0;3.99273e-53;1.0;2
104.318;31.75;2.41323e-52;1.0;2
108.15;32.5;1.43604e-51;1.0;2
111.973;33.25;8.39823e-51;1.0;2
115.8;34.0;4.85521e-50;1.0;2
119.615;34.75;2.75473e-49;1.0;2
123.434;35.5;1.54482e-48;1.0;2
127.259;36.25;8.56875e-48;1.0;2
131.096;37.0;4.71536e-47;1.0;2
134.935;37.75;2.56259e-46;1.0;2
138.773;38.5;1.37367e-45;1.0;2
142.619;39.25;7.28671e-45;1.0;2
146.477;40.0;3.8348e-44;1.0;2
150.3408;40.75;1.99508e-43;1.0;2
154.201;41.5;1.02259e-42;1.0;2
158.066;42.25;5.17776e-42;1.0;2
161.923;43.0;2.57931e-41;1.0;2
165.782;43.75;1.26766e-40;1.0;2
169.63;44.5;6.12191e-40;1.0;2
173.484;45.25;2.92301e-39;1.0;2
177.339;46.0;1.37751e-38;1.0;2
181.188;46.75;6.38781e-38;1.0;2
185.034;47.5;2.91883e-37;1.0;2
188.884;48.25;1.31758e-36;1.0;2
192.741;49.0;5.88452e-36;1.0;2
196.596;49.75;2.59093e-35;1.0;2
200.448;50.5;1.12373e-34;1.0;2
204.303;51.25;4.81578e-34;1.0;2
208.16;52.0;2.03636e-33;1.0;2
212.011;52.75;8.47719e-33;1.0;2
215.857;53.5;3.47512e-32;1.0;2
219.696;54.25;1.40193e-31;1.0;2
223.532;55.0;5.57391e-31;1.0;2
227.368;55.75;2.18633e-30;1.0;2
231.206;56.5;8.46663e-30;1.0;2
235.045;57.25;3.23516e-29;1.0;2
238.878;58.0;1.21738e-28;1.0;2
242.71;58.75;4.51901e-28;1.0;2
246.539;59.5;1.65276e-27;1.0;2
250.374;60.25;5.97828e-27;1.0;2
254.205;61.0;2.13042e-26;1.0;2
258.036;61.75;7.48879e-26;1.0;2
261.867;62.5;2.59829e-25;1.0;2
265.7;63.25;8.89697e-25;1.0;2
269.535;64.0;3.00888e-24;1.0;2
273.359;64.75;1.00026e-23;1.0;2
277.181;65.5;3.27907e-23;1.0;2
281.006;66.25;1.06155e-22;1.0;2
284.836;67.0;3.39636e-22;1.0;2
288.666;67.75;1.07197e-21;1.0;2
292.485;68.5;3.32809e-21;1.0;2
296.307;69.25;1.02051e-20;1.0;2
300.129;70.0;3.08696e-20;1.0;2
303.947;70.75;9.20399e-20;1.0;2
307.755;71.5;2.70046e-19;1.0;2
311.568;72.25;7.82754e-19;1.0;2
315.373;73.0;2.23454e-18;1.0;2
319.1809;73.75;6.2994e-18;1.0;2
322.988;74.5;1.752e-17;1.0;2
326.7946;75.25;4.80811e-17;1.0;2
330.599;76.0;1.30138e-16;1.0;2
334.409;76.75;3.48075e-16;1.0;2
338.201;77.5;9.14425e-16;1.0;2
342.001;78.25;2.37624e-15;1.0;2
345.801;79.0;6.09218e-15;1.0;2
349.596;79.75;1.53996e-14;1.0;2
353.392;80.5;3.84127e-14;1.0;2
357.19;81.25;9.46176e-14;1.0;2
360.985;82.0;2.29886e-13;1.0;2
364.776;82.75;5.50631e-13;1.0;2
368.565;83.5;1.30091e-12;1.0;2
372.3491;84.25;3.03045e-12;1.0;2
376.134;85.0;6.96886e-12;1.0;2
379.921;85.75;1.58215e-11;1.0;2
383.7;86.5;3.53925e-11;1.0;2
387.478;87.25;7.81457e-11;1.0;2
391.254;88.0;1.70202e-10;1.0;2
395.0354;88.75;3.66261e-10;1.0;2
398.817;89.5;7.78018e-10;1.0;2
402.599;90.25;1.63114e-09;1.0;2
406.379;91.0;3.37447e-09;1.0;2
410.16;91.75;6.89091e-09;1.0;2
413.935;92.5;1.38742e-08;1.0;2
417.706;93.25;2.75508e-08;1.0;2
421.478;94.0;5.40089e-08;1.0;2
425.248;94.75;1.04477e-07;1.0;2
429.019;95.5;1.99521e-07;1.0;2
432.795;96.25;3.76432e-07;1.0;2
436.573;97.0;7.01149e-07;1.0;2
440.3477;97.75;1.28831e-06;1.0;2
444.117;98.5;2.33477e-06;1.0;2
447.8979;99.25;4.18346e-06;1.0;2
451.676;100.0;7.39619e-06;1.0;2
455.4418;100.75;1.28818e-05;1.0;2
459.202;101.5;2.21296e-05;1.0;2
462.968;102.25;3.75585e-05;1.0;2
466.727;103.0;6.28634e-05;1.0;2
470.486;103.75;0.000103861;1.0;2
474.243;104.5;0.00016935;1.0;2
477.9978;105.25;0.0002725;1.0;2
481.753;106.0;0.000432886;1.0;2
485.507;106.75;0.000678742;1.0;2
489.266;107.5;0.00105118;1.0;2
493.024;108.25;0.00160688;1.0;2
496.782;109.0;0.00242474;1.0;2
500.541;109.75;0.0036125;1.0;2
504.301;110.5;0.00531294;1.0;2
508.055;111.25;0.00770892;1.0;2
511.798;112.0;0.0110307;1.0;2
515.603;112.75;0.0156704;1.0;2
519.459;113.5;0.0220675;1.0;2
523.318;114.25;0.0306613;1.0;2
527.4373;115.0;0.0429055;1.0;2
531.691;115.75;0.0597227;1.0;2
535.532;116.5;0.0793616;1.0;2
539.218;117.25;0.102949;1.0;2
542.871;118.0;0.131603;1.0;2
546.514;118.75;0.166092;1.0;2
550.163;119.5;0.207155;1.0;2
553.823;120.25;0.255395;1.0;2
557.497;121.0;0.311257;1.0;2
561.172;121.75;0.374692;1.0;2
564.8499;122.5;0.445573;1.0;2
568.536;123.25;0.523507;1.0;2
572.223;124.0;0.607502;1.0;2
575.917;124.75;0.696424;1.0;2
579.631;125.5;0.788947;1.0;2
583.346;126.25;0.882556;1.0;2
587.052;127.0;0.97467;1.0;2
590.7589;127.75;1.06294;1.0;2
594.481;128.5;1.14503;1.0;2
598.207;129.25;1.21799;1.0;2
601.936;130.0;1.27926;1.0;2
605.666;130.75;1.32663;1.0;2
609.393;131.5;1.35831;1.0;2
613.123;132.25;1.37317;1.0;2
616.8482;133.0;1.37063;1.0;2
620.572;133.75;1.35082;1.0;2
624.294;134.5;1.31453;1.0;2
628.015;135.25;1.2631;1.0;2
631.726;136.0;1.19856;1.0;2
635.431;136.75;1.12322;1.0;2
639.138;137.5;1.0394;1.0;2
642.848;138.25;0.949722;1.0;2
646.558;139.0;0.856927;1.0;2
650.261;139.75;0.763673;1.0;2
653.958;140.5;0.672241;1.0;2
657.646;141.25;0.584585;1.0;2
661.33;142.0;0.502151;1.0;2
665.017;142.75;0.425963;1.0;2
668.703;143.5;0.356879;1.0;2
672.376;144.25;0.295505;1.0;2
676.039;145.0;0.241815;1.0;2
679.697;145.75;0.195522;1.0;2
683.346;146.5;0.156253;1.0;2
686.986;147.25;0.123436;1.0;2
690.618;148.0;0.0963863;1.0;2
694.256;148.75;0.0743261;1.0;2
697.916;149.5;0.0565311;1.0;2
701.601;150.25;0.0423874;1.0;2
705.291;151.0;0.0313763;1.0;2
708.999;151.75;0.0229004;1.0;2
712.7091;152.5;0.0165037;1.0;2
716.416;153.25;0.0117478;1.0;2
720.121;154.0;0.0082594;1.0;2
723.827;154.75;0.00573374;1.0;2
727.532;155.5;0.00393089;1.0;2
731.242;156.25;0.00265989;1.0;2
734.95;157.0;0.00177768;1.0;2
738.661;157.75;0.00117279;1.0;2
742.371;158.5;0.000764168;1.0;2
746.0747;159.25;0.00049203;1.0;2
749.774;160.0;0.000313023;1.0;2
753.474;160.75;0.000196656;1.0;2
757.179;161.5;0.000121921;1.0;2
760.88;162.25;7.46753e-05;1.0;2
764.587;163.0;4.51365e-05;1.0;2
768.295;163.75;2.69372e-05;1.0;2
772.008;164.5;1.58628e-05;1.0;2
775.722;165.25;9.22236e-06;1.0;2
779.436;166.0;5.29492e-06;1.0;2
783.14;166.75;3.00647e-06;1.0;2
786.842;167.5;1.68628e-06;1.0;2
790.548;168.25;9.33386e-07;1.0;2
794.255;169.0;5.1004e-07;1.0;2
797.966;169.75;2.75067e-07;1.0;2
801.672;170.5;1.46627e-07;1.0;2
805.379;171.25;7.71609e-08;1.0;2
809.08;172.0;4.01394e-08;1.0;2
812.779;172.75;2.06296e-08;1.0;2
816.475;173.5;1.04754e-08;1.0;2
820.177;174.25;5.24742e-09;1.0;2
823.877;175.0;2.5968e-09;1.0;2
827.58;175.75;1.26829e-09;1.0;2
831.283;176.5;6.11745e-10;1.0;2
834.987;177.25;2.9128e-10;1.0;2
838.691;178.0;1.36992e-10;1.0;2
842.396;178.75;6.35939e-11;1.0;2
846.101;179.5;2.91565e-11;1.0;2
849.801;180.25;1.32158e-11;1.0;2
853.5;181.0;5.9174e-12;1.0;2
857.203;181.75;2.61374e-12;1.0;2
860.904;182.5;1.14054e-12;1.0;2
864.607;183.25;4.91351e-13;1.0;2
868.312;184.0;2.08919e-13;1.0;2
872.0177;184.75;8.77097e-14;1.0;2
875.721;185.5;3.6387e-14;1.0;2
879.421;186.25;1.49141e-14;1.0;2
883.121;187.0;6.03798e-15;1.0;2
886.822;187.75;2.4139e-15;1.0;2
890.521;188.5;9.53158e-16;1.0;2
894.216;189.25;3.72122e-16;1.0;2
897.912;190.0;1.43427e-16;1.0;2
901.61;190.75;5.45672e-17;1.0;2
905.315;191.5;2.04642e-17;1.0;2
906.55;191.75;1.4716e-17;1.0;2