Folder: PeaksSeparation.jl/src/data/kinetics/multipeaks/q5 (part 2)

File: peak_3.txt
#EXPORTTYPE:DATA SINGLE
#FILE:00592013__Al2O3_900_5_N2_20_air_20.ngb-ds1
#FTYPE:ANSI
#IDENTITY:005920
#DECIMAL:POINT
#SEPARATOR:SEMICOLON
#MTYPE:DSC
#PROJECT:
#DATE/TIME:21.07.2025 08:33
#CORR. FILE:005919_bline_Al2O3_900_5_N2_20_air_20.ngb-bs1
#TEMPCAL:TCALZERO.TCX
#SENSITIVITY:SENSZERO.EXX
#LABORATORY: 11
#OPERATOR:
#REMARK:
#SAMPLE:1
#SAMPLE MASS /mg:9.99
#MATERIAL:
#REFERENCE:
#REFERENCE MASS /mg:0
#TYPE OF CRUCIBLE:DSC/TG pan Al2O3
#SAMPLE CRUCIBLE MASS /mg:0
#REFERENCE CRUCIBLE MASS /mg:0
#DSC RANGE /V:5000
#TG RANGE /mg:5000
#TAU-R:---
#CORR. CODE:020
#EXO:+1
#RANGE:35C/00:00/35C/5,0(K/min)/920C/
#SEGMENT:S1-2/2
#SEG. 1:35C/00:15/35C
#SEG. 2:35C/5,0(K/min)/920C

##Temp./C;Time/min;DSC/(uV/mg);Sensit./(uV/mW);Segment
34.17636;0.25;3.64078e-290;1.0;1
34.17688;1.0;3.64479e-290;1.0;1
34.16876;1.75;3.58272e-290;1.0;1
34.16576;2.5;3.56006e-290;1.0;1
34.16288;3.25;3.53844e-290;1.0;1
34.16165;4.0;3.52924e-290;1.0;1
34.16759;4.75;3.57386e-290;1.0;1
34.15641;5.5;3.49034e-290;1.0;1
34.15641;6.25;3.49034e-290;1.0;1
34.15471;7.0;3.47781e-290;1.0;1
34.15988;7.75;3.51605e-290;1.0;1
34.15247;8.5;3.46137e-290;1.0;1
34.15082;9.25;3.44931e-290;1.0;1
34.15165;10.0;3.45537e-290;1.0;1
34.14282;10.75;3.39143e-290;1.0;1
34.13618;11.5;3.34413e-290;1.0;1
34.12518;12.25;3.26721e-290;1.0;1
34.12447;13.0;3.26231e-290;1.0;1
34.12024;13.75;3.23325e-290;1.0;1
34.10235;14.5;3.11317e-290;1.0;1
34.10516;15.25;3.13173e-290;1.0;2
34.42622;16.0;6.17559e-290;1.0;2
35.61708;16.75;7.64137e-289;1.0;2
37.54164;17.5;4.40948e-287;1.0;2
39.94421;18.25;6.84641e-285;1.0;2
42.69183;19.0;2.14238e-282;1.0;2
45.6928;19.75;1.10623e-279;1.0;2
48.88834;20.5;8.28423e-277;1.0;2
52.23305;21.25;8.14494e-274;1.0;2
55.68474;22.0;9.59701e-271;1.0;2
59.23476;22.75;1.32664e-267;1.0;2
62.86358;23.5;2.06103e-264;1.0;2
66.53528;24.25;3.33873e-261;1.0;2
70.24448;25.0;5.57051e-258;1.0;2
73.97395;25.75;9.23822e-255;1.0;2
77.71669;26.5;1.50088e-251;1.0;2
81.47146;27.25;2.38174e-248;1.0;2
85.24469;28.0;3.73652e-245;1.0;2
89.03755;28.75;5.80415e-242;1.0;2
92.84121;29.5;8.77058e-239;1.0;2
96.65528;30.25;1.28775e-235;1.0;2
100.482;31.0;1.8438e-232;1.0;2
104.318;31.75;2.55879e-229;1.0;2
108.15;32.5;3.35149e-226;1.0;2
111.973;33.25;4.11297e-223;1.0;2
115.8;34.0;4.84212e-220;1.0;2
119.615;34.75;5.3111e-217;1.0;2
123.434;35.5;5.58468e-214;1.0;2
127.259;36.25;5.64625e-211;1.0;2
131.096;37.0;5.55638e-208;1.0;2
134.935;37.75;5.22478e-205;1.0;2
138.773;38.5;4.67137e-202;1.0;2
142.619;39.25;4.02377e-199;1.0;2
146.477;40.0;3.37418e-196;1.0;2
150.3408;40.75;2.71493e-193;1.0;2
154.201;41.5;2.06725e-190;1.0;2
158.066;42.25;1.50604e-187;1.0;2
161.923;43.0;1.03245e-184;1.0;2
165.782;43.75;6.73657e-182;1.0;2
169.63;44.5;4.1152e-179;1.0;2
173.484;45.25;2.41335e-176;1.0;2
177.339;46.0;1.34936e-173;1.0;2
181.188;46.75;7.10369e-171;1.0;2
185.034;47.5;3.54124e-168;1.0;2
188.884;48.25;1.68925e-165;1.0;2
192.741;49.0;7.75863e-163;1.0;2
196.596;49.75;3.38119e-160;1.0;2
200.448;50.5;1.3935e-157;1.0;2
204.303;51.25;5.50015e-155;1.0;2
208.16;52.0;2.06712e-152;1.0;2
212.011;52.75;7.32927e-150;1.0;2
215.857;53.5;2.45421e-147;1.0;2
219.696;54.25;7.74009e-145;1.0;2
223.532;55.0;2.31304e-142;1.0;2
227.368;55.75;6.57751e-140;1.0;2
231.206;56.5;1.7852e-137;1.0;2
235.045;57.25;4.61354e-135;1.0;2
238.878;58.0;1.12616e-132;1.0;2
242.71;58.75;2.61489e-130;1.0;2
246.539;59.5;5.74586e-128;1.0;2
250.374;60.25;1.21387e-125;1.0;2
254.205;61.0;2.42617e-123;1.0;2
258.036;61.75;4.61141e-121;1.0;2
261.867;62.5;8.35684e-119;1.0;2
265.7;63.25;1.44322e-116;1.0;2
269.535;64.0;2.38286e-114;1.0;2
273.359;64.75;3.68695e-112;1.0;2
277.181;65.5;5.41821e-110;1.0;2
281.006;66.25;7.60772e-108;1.0;2
284.836;67.0;1.02399e-105;1.0;2
288.666;67.75;1.31115e-103;1.0;2
292.485;68.5;1.57764e-101;1.0;2
296.307;69.25;1.81484e-99;1.0;2
300.129;70.0;1.98593e-97;1.0;2
303.947;70.75;2.05982e-95;1.0;2
307.755;71.5;2.0109e-93;1.0;2
311.568;72.25;1.87892e-91;1.0;2
315.373;73.0;1.65817e-89;1.0;2
319.1809;73.75;1.39813e-87;1.0;2
322.988;74.5;1.12163e-85;1.0;2
326.7946;75.25;8.56835e-84;1.0;2
330.599;76.0;6.21945e-82;1.0;2
334.409;76.75;4.32578e-80;1.0;2
338.201;77.5;2.8085e-78;1.0;2
342.001;78.25;1.75464e-76;1.0;2
345.801;79.0;1.04315e-74;1.0;2
349.596;79.75;5.88421e-73;1.0;2
353.392;80.5;3.16119e-71;1.0;2
357.19;81.25;1.62235e-69;1.0;2
360.985;82.0;7.91486e-68;1.0;2
364.776;82.75;3.66185e-66;1.0;2
368.565;83.5;1.61034e-64;1.0;2
372.3491;84.25;6.71992e-63;1.0;2
376.134;85.0;2.67501e-61;1.0;2
379.921;85.75;1.01618e-59;1.0;2
383.7;86.5;3.65176e-58;1.0;2
387.478;87.25;1.251e-56;1.0;2
391.254;88.0;4.0742e-55;1.0;2
395.0354;88.75;1.27061e-53;1.0;2
398.817;89.5;3.77916e-52;1.0;2
402.599;90.25;1.07123e-50;1.0;2
406.379;91.0;2.89112e-49;1.0;2
410.16;91.75;7.44038e-48;1.0;2
413.935;92.5;1.81636e-46;1.0;2
417.706;93.25;4.21196e-45;1.0;2
421.478;94.0;9.31771e-44;1.0;2
425.248;94.75;1.96264e-42;1.0;2
429.019;95.5;3.94426e-41;1.0;2
432.795;96.25;7.58824e-40;1.0;2
436.573;97.0;1.39313e-38;1.0;2
440.3477;97.75;2.43172e-37;1.0;2
444.117;98.5;4.03209e-36;1.0;2
447.8979;99.25;6.42489e-35;1.0;2
451.676;100.0;9.7434e-34;1.0;2
455.4418;100.75;1.39562e-32;1.0;2
459.202;101.5;1.89908e-31;1.0;2
462.968;102.25;2.47433e-30;1.0;2
466.727;103.0;3.05993e-29;1.0;2
470.486;103.75;3.60821e-28;1.0;2
474.243;104.5;4.05281e-27;1.0;2
477.9978;105.25;4.33464e-26;1.0;2
481.753;106.0;4.42346e-25;1.0;2
485.507;106.75;4.30194e-24;1.0;2
489.266;107.5;4.00209e-23;1.0;2
493.024;108.25;3.54849e-22;1.0;2
496.782;109.0;3.00045e-21;1.0;2
500.541;109.75;2.42185e-20;1.0;2
504.301;110.5;1.86433e-19;1.0;2
508.055;111.25;1.36447e-18;1.0;2
511.798;112.0;9.47214e-18;1.0;2
515.603;112.75;6.47032e-17;1.0;2
519.459;113.5;4.31726e-16;1.0;2
523.318;114.25;2.74317e-15;1.0;2
527.4373;115.0;1.8682e-14;1.0;2
531.691;115.75;1.27633e-13;1.0;2
535.532;116.5;6.86512e-13;1.0;2
539.218;117.25;3.29505e-12;1.0;2
542.871;118.0;1.49031e-11;1.0;2
546.514;118.75;6.42127e-11;1.0;2
550.163;119.5;2.65184e-10;1.0;2
553.823;120.25;1.05154e-09;1.0;2
557.497;121.0;4.00646e-09;1.0;2
561.172;121.75;1.45927e-08;1.0;2
564.8499;122.5;5.0846e-08;1.0;2
568.536;123.25;1.69717e-07;1.0;2
572.223;124.0;5.41475e-07;1.0;2
575.917;124.75;1.65392e-06;1.0;2
579.631;125.5;4.85294e-06;1.0;2
583.346;126.25;1.35973e-05;1.0;2
587.052;127.0;3.6295e-05;1.0;2
590.7589;127.75;9.2516e-05;1.0;2
594.481;128.5;0.000225982;1.0;2
598.207;129.25;0.000527481;1.0;2
601.936;130.0;0.00117559;1.0;2
605.666;130.75;0.00250166;1.0;2
609.393;131.5;0.00507707;1.0;2
613.123;132.25;0.00983877;1.0;2
616.8482;133.0;0.0181825;1.0;2
620.572;133.75;0.0320686;1.0;2
624.294;134.5;0.0539628;1.0;2
628.015;135.25;0.0866805;1.0;2
631.726;136.0;0.132771;1.0;2
635.431;136.75;0.194035;1.0;2
639.138;137.5;0.270871;1.0;2
642.848;138.25;0.361156;1.0;2
646.558;139.0;0.459764;1.0;2
650.261;139.75;0.558698;1.0;2
653.958;140.5;0.648208;1.0;2
657.646;141.25;0.718206;1.0;2
661.33;142.0;0.760202;1.0;2
665.017;142.75;0.768794;1.0;2
668.703;143.5;0.742805;1.0;2
672.376;144.25;0.685936;1.0;2
676.039;145.0;0.605606;1.0;2
679.697;145.75;0.51126;1.0;2
683.346;146.5;0.412884;1.0;2
686.986;147.25;0.319092;1.0;2
690.618;148.0;0.236037;1.0;2
694.256;148.75;0.166927;1.0;2
697.916;149.5;0.112644;1.0;2
701.601;150.25;0.0724407;1.0;2
705.291;151.0;0.0444785;1.0;2
708.999;151.75;0.0260155;1.0;2
712.7091;152.5;0.0145275;1.0;2
716.416;153.25;0.00774984;1.0;2
720.121;154.0;0.00394928;1.0;2
723.827;154.75;0.00192148;1.0;2
727.532;155.5;0.000892857;1.0;2
731.242;156.25;0.000395769;1.0;2
734.95;157.0;0.000167583;1.0;2
738.661;157.75;6.77058e-05;1.0;2
742.371;158.5;2.61286e-05;1.0;2
746.0747;159.25;9.64362e-06;1.0;2
749.774;160.0;3.4034e-06;1.0;2
753.474;160.75;1.1471e-06;1.0;2
757.179;161.5;3.68622e-07;1.0;2
760.88;162.25;1.13237e-07;1.0;2
764.587;163.0;3.31656e-08;1.0;2
768.295;163.75;9.27251e-09;1.0;2
772.008;164.5;2.47076e-09;1.0;2
775.722;165.25;6.28278e-10;1.0;2
779.436;166.0;1.52568e-10;1.0;2
783.14;166.75;3.55129e-11;1.0;2
786.842;167.5;7.9003e-12;1.0;2
790.548;168.25;1.67555e-12;1.0;2
794.255;169.0;3.39085e-13;1.0;2
797.966;169.75;6.54285e-14;1.0;2
801.672;170.5;1.20857e-14;1.0;2
805.379;171.25;2.13007e-15;1.0;2
809.08;172.0;3.59521e-16;1.0;2
812.779;172.75;5.80245e-17;1.0;2
816.475;173.5;8.95594e-18;1.0;2
820.177;174.25;1.31635e-18;1.0;2
823.877;175.0;1.84979e-19;1.0;2
827.58;175.75;2.4783e-20;1.0;2
831.283;176.5;3.1715e-21;1.0;2
834.987;177.25;3.87195e-22;1.0;2
838.691;178.0;4.51728e-23;1.0;2
842.396;178.75;5.02597e-24;1.0;2
846.101;179.5;5.34216e-25;1.0;2
849.801;180.25;5.44054e-26;1.0;2
853.5;181.0;5.29611e-27;1.0;2
857.203;181.75;4.90876e-28;1.0;2
860.904;182.5;4.34996e-29;1.0;2
864.607;183.25;3.67855e-30;1.0;2
868.312;184.0;2.96593e-31;1.0;2
872.0177;184.75;2.28276e-32;1.0;2
875.721;185.5;1.68111e-33;1.0;2
879.421;186.25;1.184e-34;1.0;2
883.121;187.0;7.96911e-36;1.0;2
886.822;187.75;5.12194e-37;1.0;2
890.521;188.5;3.14548e-38;1.0;2
894.216;189.25;1.85158e-39;1.0;2
897.912;190.0;1.04005e-40;1.0;2
901.61;190.75;5.57188e-42;1.0;2
905.315;191.5;2.83518e-43;1.0;2
906.55;191.75;1.0398e-43;1.0;2