Folder: PeaksSeparation.jl/src/data/kinetics

Note: README.md
# PeaksSeparation

[![Build Status](https://github.com/Manarom/PeaksSeparation.jl/actions/workflows/CI.yml/badge.svg?branch=main)](https://github.com/Manarom/PeaksSeparation.jl/actions/workflows/CI.yml?query=branch%3Amain)

Small package for peaks separation

<p float="left">
  <img src="./src/data/kinetics/peaks.png" width="320"/>
</p>

# Quick start:
Clone this repository to your local machine in `project_folder` (any name)

In julia REPL run:
```julia
  import Pkg
  cd(project_folder) # sets working folder to project_folder
  Pkg.activate(".")
  Pkg.instantiate() # to install all necessary dependencies
  include(".\\src\\PeaksSeparation.jl")
  using .PeaksSeparation
  (sol,p) = PeaksSeparation.fit_peaks(x,y,N=5) # fits five peaks to y(x) curve
  p[0] # gives baseline object
  p[1] # first peak etc
  using Plots
  plot(p)  # plots peaks
  PeaksSeparation.fit_peaks!(p) # to perform additional fitting
```
Pluto [notebook](https://github.com/Manarom/PeaksSeparation.jl/blob/main/src/dsc_peaks.jl) is also available

File: q7t5.txt
#EXPORTTYPE:DATA SINGLE
#FTYPE:ANSI
#DECIMAL:POINT
#SEPARATOR:SEMICOLON
#MTYPE:DSC
#PROJECT:
#CORR. FILE:005925_bline_Al2O3_900_7.5_N2_20_air_20.ngb-bs1
#TEMPCAL:TCALZERO.TCX
#SENSITIVITY:SENSZERO.EXX
#LABORATORY:13
#OPERATOR:
#REMARK:
#SAMPLE:4
#SAMPLE MASS /mg:7.42
#MATERIAL:
#REFERENCE:
#REFERENCE MASS /mg:0
#TYPE OF CRUCIBLE:DSC/TG pan Al2O3
#SAMPLE CRUCIBLE MASS /mg:0
#REFERENCE CRUCIBLE MASS /mg:0
#DSC RANGE /V:5000
#TG RANGE /mg:5000
#TAU-R:---
#CORR. CODE:020
#EXO:+1
#RANGE:35C/7,5(K/min)/920�C
#SEGMENT:S1/1
#SEG. 1:35�C/7,5(K/min)/920�C

##Temp./�C;Time/min;DSC/(uV/mg);Sensit./(uV/mW)
 34.11100;  0.00000; 5.1411e-004;1.00000
 34.14896;  0.50000;-2.0564e-004;1.00000
 34.59436;  1.00000;-2.2621e-003;1.00000
 35.68375;  1.50000;-9.5624e-003;1.00000
 37.32905;  2.00000;-1.5218e-002;1.00000
 39.42311;  2.50000;-2.0667e-002;1.00000
 41.82416;  3.00000;-2.5397e-002;1.00000
 44.48642;  3.50000;-2.8585e-002;1.00000
 47.36371;  4.00000;-2.9304e-002;1.00000
 50.40853;  4.50000;-2.6631e-002;1.00000
 53.59856;  5.00000;-3.0024e-002;1.00000
 56.91062;  5.50000;-4.2054e-002;1.00000
 60.33416;  6.00000;-4.0923e-002;1.00000
 63.83709;  6.50000;-4.3699e-002;1.00000
 67.40722;  7.00000;-4.9046e-002;1.00000
 71.01816;  7.50000;-4.8121e-002;1.00000
 74.67300;  8.00000;-4.9457e-002;1.00000
 78.36113;  8.50000;-5.2953e-002;1.00000
 82.07220;  9.00000;-5.5421e-002;1.00000
 85.82376;  9.50000;-3.7633e-002;1.00000
 89.60155; 10.00000;-4.1951e-002;1.00000
 93.40258; 10.50000;-4.7607e-002;1.00000
 97.22127; 11.00000;-4.8429e-002;1.00000
101.064; 11.50000;-5.2336e-002;1.00000
104.918; 12.00000;-5.5318e-002;1.00000
108.783; 12.50000;-5.5935e-002;1.00000
112.642; 13.00000;-5.6861e-002;1.00000
116.508; 13.50000;-5.6346e-002;1.00000
120.368; 14.00000;-5.2028e-002;1.00000
124.229; 14.50000;-4.5447e-002;1.00000
128.1; 15.00000;-4.1951e-002;1.00000
131.969; 15.50000;-4.1746e-002;1.00000
135.851; 16.00000;-4.7607e-002;1.00000
139.739; 16.50000;-4.3185e-002;1.00000
143.637; 17.00000;-3.8867e-002;1.00000
147.54; 17.50000;-4.6887e-002;1.00000
151.447; 18.00000;-5.0383e-002;1.00000
155.351; 18.50000;-3.6296e-002;1.00000
159.254; 19.00000;-3.2800e-002;1.00000
163.159; 19.50000;-3.7427e-002;1.00000
167.059; 20.00000;-3.6193e-002;1.00000
170.954; 20.50000;-3.7016e-002;1.00000
174.862; 21.00000;-3.4857e-002;1.00000
178.753; 21.50000;-3.1669e-002;1.00000
182.658; 22.00000;-3.2183e-002;1.00000
186.561; 22.50000;-3.0641e-002;1.00000
190.467; 23.00000;-2.7556e-002;1.00000
194.37; 23.50000;-2.7042e-002;1.00000
198.27; 24.00000;-1.4601e-002;1.00000
202.169; 24.50000;-1.6246e-002;1.00000
206.063; 25.00000;-1.4601e-002;1.00000
209.955; 25.50000;-1.6452e-002;1.00000
213.846; 26.00000;-1.3573e-002;1.00000
217.731; 26.50000;-1.1722e-002;1.00000
221.614; 27.00000;-1.0385e-002;1.00000
225.496; 27.50000;-6.6834e-003;1.00000
229.384; 28.00000;-3.5988e-003;1.00000
233.268; 28.50000;-1.0282e-003;1.00000
237.151; 29.00000;-5.1411e-004;1.00000
241.031; 29.50000; 1.9536e-003;1.00000
244.91; 30.00000; 4.7298e-003;1.00000
248.785; 30.50000; 8.7399e-003;1.00000
252.667; 31.00000; 1.2133e-002;1.00000
256.535; 31.50000; 1.5115e-002;1.00000
260.406; 32.00000; 1.8302e-002;1.00000
264.273; 32.50000; 2.2518e-002;1.00000
268.144; 33.00000; 2.5603e-002;1.00000
272.016; 33.50000; 2.7968e-002;1.00000
275.882; 34.00000; 3.1875e-002;1.00000
279.747; 34.50000; 3.5576e-002;1.00000
283.612; 35.00000; 3.8455e-002;1.00000
287.475; 35.50000; 3.9895e-002;1.00000
291.334; 36.00000; 4.4625e-002;1.00000
295.187; 36.50000; 4.9560e-002;1.00000
299.038; 37.00000; 5.1411e-002;1.00000
302.89; 37.50000; 5.5730e-002;1.00000
306.742; 38.00000; 5.9740e-002;1.00000
310.596; 38.50000; 6.1590e-002;1.00000
314.448; 39.00000; 6.6732e-002;1.00000
318.302; 39.50000; 7.1873e-002;1.00000
322.149; 40.00000; 7.2798e-002;1.00000
325.994; 40.50000; 7.5060e-002;1.00000
329.836; 41.00000; 7.6294e-002;1.00000
333.676; 41.50000; 7.9481e-002;1.00000
337.513; 42.00000; 8.2052e-002;1.00000
341.344; 42.50000; 8.6782e-002;1.00000
345.166; 43.00000; 8.9250e-002;1.00000
348.992; 43.50000; 9.2643e-002;1.00000
352.815; 44.00000; 9.4288e-002;1.00000
356.633; 44.50000; 9.7989e-002;1.00000
360.45; 45.00000;     0.10221;1.00000
364.264; 45.50000;     0.10416;1.00000
368.076; 46.00000;     0.10930;1.00000
371.885; 46.50000;     0.11259;1.00000
375.692; 47.00000;     0.11917;1.00000
379.505; 47.50000;     0.12267;1.00000
383.318; 48.00000;     0.12719;1.00000
387.127; 48.50000;     0.13017;1.00000
390.937; 49.00000;     0.13274;1.00000
394.738; 49.50000;     0.13758;1.00000
398.538; 50.00000;     0.14148;1.00000
402.337; 50.50000;     0.14786;1.00000
406.133; 51.00000;     0.15146;1.00000
409.932; 51.50000;     0.15814;1.00000
413.734; 52.00000;     0.16585;1.00000
417.53; 52.50000;     0.16955;1.00000
421.327; 53.00000;     0.17572;1.00000
425.122; 53.50000;     0.18025;1.00000
428.909; 54.00000;     0.18559;1.00000
432.696; 54.50000;     0.19043;1.00000
436.484; 55.00000;     0.19557;1.00000
440.271; 55.50000;     0.19937;1.00000
444.066; 56.00000;     0.20472;1.00000
447.854; 56.50000;     0.20904;1.00000
451.637; 57.00000;     0.21253;1.00000
455.424; 57.50000;     0.21870;1.00000
459.212; 58.00000;     0.22189;1.00000
462.995; 58.50000;     0.22662;1.00000
466.78; 59.00000;     0.23176;1.00000
470.554; 59.50000;     0.23680;1.00000
474.329; 60.00000;     0.24040;1.00000
478.106; 60.50000;     0.25757;1.00000
481.877; 61.00000;     0.26466;1.00000
485.652; 61.50000;     0.27464;1.00000
489.424; 62.00000;     0.28461;1.00000
493.193; 62.50000;     0.31268;1.00000
496.965; 63.00000;     0.34507;1.00000
500.744; 63.50000;     0.39288;1.00000
504.524; 64.00000;     0.44769;1.00000
508.303; 64.50000;     0.51997;1.00000
512.088; 65.00000;     0.60079;1.00000
515.875; 65.50000;     0.67996;1.00000
519.665; 66.00000;     0.76479;1.00000
523.463; 66.50000;     0.84653;1.00000
527.268; 67.00000;     0.91676;1.00000
531.111; 67.50000;     0.95450;1.00000
535.001; 68.00000;     0.95069;1.00000
538.928; 68.50000;     0.98576;1.00000
542.743; 69.00000;     1.13742;1.00000
546.55; 69.50000;     1.20497;1.00000
550.383; 70.00000;     1.27612;1.00000
554.184; 70.50000;     1.36897;1.00000
557.935; 71.00000;     1.41853;1.00000
561.663; 71.50000;     1.45925;1.00000
565.37; 72.00000;     1.49226;1.00000
569.063; 72.50000;     1.51477;1.00000
572.754; 73.00000;     1.52650;1.00000
576.457; 73.50000;     1.53102;1.00000
580.161; 74.00000;     1.53482;1.00000
583.862; 74.50000;     1.53729;1.00000
587.572; 75.00000;     1.54696;1.00000
591.287; 75.50000;     1.55899;1.00000
595.011; 76.00000;     1.57133;1.00000
598.734; 76.50000;     1.58788;1.00000
602.462; 77.00000;     1.60526;1.00000
606.19; 77.50000;     1.62593;1.00000
609.922; 78.00000;     1.64793;1.00000
613.66; 78.50000;     1.67271;1.00000
617.394; 79.00000;     1.69770;1.00000
621.129; 79.50000;     1.72155;1.00000
624.865; 80.00000;     1.74067;1.00000
628.596; 80.50000;     1.75641;1.00000
632.325; 81.00000;     1.76494;1.00000
636.053; 81.50000;     1.77101;1.00000
639.777; 82.00000;     1.76885;1.00000
643.495; 82.50000;     1.76402;1.00000
647.214; 83.00000;     1.75281;1.00000
650.933; 83.50000;     1.73584;1.00000
654.65; 84.00000;     1.71456;1.00000
658.368; 84.50000;     1.68875;1.00000
662.089; 85.00000;     1.65585;1.00000
665.812; 85.50000;     1.61523;1.00000
669.526; 86.00000;     1.56547;1.00000
673.235; 86.50000;     1.50747;1.00000
676.932; 87.00000;     1.43498;1.00000
680.621; 87.50000;     1.35067;1.00000
684.301; 88.00000;     1.23983;1.00000
687.975; 88.50000;     1.10050;1.00000
691.639; 89.00000;     0.92684;1.00000
695.298; 89.50000;     0.72047;1.00000
698.957; 90.00000;     0.50516;1.00000
702.61; 90.50000;     0.31834;1.00000
706.277; 91.00000;     0.19238;1.00000
709.947; 91.50000;     0.12472;1.00000
713.632; 92.00000; 9.3157e-002;1.00000
717.331; 92.50000; 8.0201e-002;1.00000
721.039; 93.00000; 7.5986e-002;1.00000
724.755; 93.50000; 7.2284e-002;1.00000
728.468; 94.00000; 7.0433e-002;1.00000
732.184; 94.50000; 6.7451e-002;1.00000
735.899; 95.00000; 6.7040e-002;1.00000
739.613; 95.50000; 6.6115e-002;1.00000
743.327; 96.00000; 6.5909e-002;1.00000
747.039; 96.50000; 6.6012e-002;1.00000
750.748; 97.00000; 6.6115e-002;1.00000
754.452; 97.50000; 6.7760e-002;1.00000
758.164; 98.00000; 6.5292e-002;1.00000
761.881; 98.50000; 6.5909e-002;1.00000
765.603; 99.00000; 6.8377e-002;1.00000
769.328; 99.50000; 6.7246e-002;1.00000
773.047;100; 6.4984e-002;1.00000
776.767;100.5; 6.4264e-002;1.00000
780.486;101; 6.4264e-002;1.00000
784.203;101.5; 6.3441e-002;1.00000
787.921;102; 6.3441e-002;1.00000
791.638;102.5; 6.2516e-002;1.00000
795.355;103; 6.3544e-002;1.00000
799.075;103.5; 6.3441e-002;1.00000
802.799;104; 6.3750e-002;1.00000
806.516;104.5; 6.1796e-002;1.00000
810.234;105; 6.2516e-002;1.00000
813.949;105.5; 6.4058e-002;1.00000
817.668;106; 6.2207e-002;1.00000
821.39;106.5; 5.9740e-002;1.00000
825.108;107; 5.7580e-002;1.00000
828.833;107.5; 5.6861e-002;1.00000
832.557;108; 5.6038e-002;1.00000
836.283;108.5; 5.6861e-002;1.00000
840.01;109; 5.4393e-002;1.00000
843.739;109.5; 5.5524e-002;1.00000
847.464;110; 5.2234e-002;1.00000
851.174;110.5; 4.9355e-002;1.00000
854.889;111; 4.7092e-002;1.00000
858.605;111.5; 4.3699e-002;1.00000
862.322;112; 4.1334e-002;1.00000
866.038;112.5; 4.0820e-002;1.00000
869.751;113; 3.8455e-002;1.00000
873.463;113.5; 3.8044e-002;1.00000
877.17;114; 3.8147e-002;1.00000
880.875;114.5; 3.8764e-002;1.00000
884.583;115; 3.8558e-002;1.00000
888.291;115.5; 3.8353e-002;1.00000
891.993;116; 4.0615e-002;1.00000
895.693;116.5; 4.3905e-002;1.00000
899.391;117; 4.4728e-002;1.00000
903.082;117.5; 4.5653e-002;1.00000